"acc","accuracy","average_response_time","avg_rt","background","canvas_backend","clock_backend","color_backend","condition","correct","correct_intructions","correct_key_response","correct_resp","correct_welcome_message","count_Number","count_blank","count_block_loop","count_end_message","count_experiment","count_fixation","count_intructions","count_key_response","count_logger","count_trial_sequence","count_welcome_message","datetime","description","disable_garbage_collection","experiment_file","experiment_path","font_bold","font_family","font_italic","font_size","font_size_left","font_size_right","font_underline","foreground","form_clicks","fullscreen","height","keyboard_backend","live_row","live_row_block_loop","logfile","mouse_backend","number_left","number_right","opensesame_codename","opensesame_version","repeat_cycle","response","response_end_message","response_intructions","response_key_response","response_time","response_time_end_message","response_time_intructions","response_time_key_response","response_time_welcome_message","response_welcome_message","round_decimals","sampler_backend","sound_buf_size","sound_channels","sound_freq","sound_sample_size","start","subject_nr","subject_parity","time_Number","time_blank","time_block_loop","time_end_message","time_experiment","time_fixation","time_intructions","time_key_response","time_logger","time_trial_sequence","time_welcome_message","title","total_correct","total_response_time","total_responses","width"
"0","0","2419","2419","#3d3846","xpyriment","legacy","legacy","i","0","undefined","0","p","undefined","0","0","0","0","0","0","0","0","0","0","0","Mon Dec 15 19:47:19 2025","The main experiment item","False","stroop_task.osexp","C:\Users\jobay\Downloads","False","mono","False","25","80","40","no","white","no","yes","768","legacy","0","0","G:/class task/subject-1.csv","xpyriment","8","9","Neonatal Nightingale","4.1.6","0","q","NA","space","q","2419.0","NA","1423","2419","11475","space","2","legacy","1024","2","48000","-16","experiment","1","odd","15572","14868","14623","NA","1716","15070","13200","15572","17992","14864","1721","STROOP_task","0","2419.0","1","1024"
"50","50","1529","1529","#3d3846","xpyriment","legacy","legacy","n","1","undefined","1","p","undefined","1","1","0","0","0","1","0","1","1","1","0","Mon Dec 15 19:47:19 2025","The main experiment item","False","stroop_task.osexp","C:\Users\jobay\Downloads","False","mono","False","25","60","60","no","white","no","yes","768","legacy","1","1","G:/class task/subject-1.csv","xpyriment","4","9","Neonatal Nightingale","4.1.6","0","p","NA","space","p","639.0","NA","1423","639","11475","space","2","legacy","1024","2","48000","-16","experiment","1","odd","19035","18331","14623","NA","1716","18533","13200","19035","19674","18326","1721","STROOP_task","1","3058.0","2","1024"
"66","66","1168","1168","#3d3846","xpyriment","legacy","legacy","c","1","undefined","1","q","undefined","2","2","0","0","0","2","0","2","2","2","0","Mon Dec 15 19:47:19 2025","The main experiment item","False","stroop_task.osexp","C:\Users\jobay\Downloads","False","mono","False","25","80","40","no","white","no","yes","768","legacy","2","2","G:/class task/subject-1.csv","xpyriment","6","1","Neonatal Nightingale","4.1.6","0","q","NA","space","q","446.0","NA","1423","446","11475","space","2","legacy","1024","2","48000","-16","experiment","1","odd","20629","19925","14623","NA","1716","20127","13200","20629","21076","19920","1721","STROOP_task","2","3504.0","3","1024"
"75","75","990","990","#3d3846","xpyriment","legacy","legacy","n","1","undefined","1","p","undefined","3","3","0","0","0","3","0","3","3","3","0","Mon Dec 15 19:47:19 2025","The main experiment item","False","stroop_task.osexp","C:\Users\jobay\Downloads","False","mono","False","25","60","60","no","white","no","yes","768","legacy","3","3","G:/class task/subject-1.csv","xpyriment","2","7","Neonatal Nightingale","4.1.6","0","p","NA","space","p","459.0","NA","1423","459","11475","space","2","legacy","1024","2","48000","-16","experiment","1","odd","22069","21365","14623","NA","1716","21567","13200","22069","22529","21361","1721","STROOP_task","3","3963.0","4","1024"
"80","80","882","882","#3d3846","xpyriment","legacy","legacy","i","1","undefined","1","q","undefined","4","4","0","0","0","4","0","4","4","4","0","Mon Dec 15 19:47:19 2025","The main experiment item","False","stroop_task.osexp","C:\Users\jobay\Downloads","False","mono","False","25","40","80","no","white","no","yes","768","legacy","4","4","G:/class task/subject-1.csv","xpyriment","7","2","Neonatal Nightingale","4.1.6","0","q","NA","space","q","450.0","NA","1423","450","11475","space","2","legacy","1024","2","48000","-16","experiment","1","odd","23518","22814","14623","NA","1716","23016","13200","23518","23968","22810","1721","STROOP_task","4","4413.0","5","1024"
"83","83","871","871","#3d3846","xpyriment","legacy","legacy","n","1","undefined","1","q","undefined","5","5","0","0","0","5","0","5","5","5","0","Mon Dec 15 19:47:19 2025","The main experiment item","False","stroop_task.osexp","C:\Users\jobay\Downloads","False","mono","False","25","60","60","no","white","no","yes","768","legacy","5","5","G:/class task/subject-1.csv","xpyriment","4","3","Neonatal Nightingale","4.1.6","0","q","NA","space","q","815.0","NA","1423","815","11475","space","2","legacy","1024","2","48000","-16","experiment","1","odd","24924","24220","14623","NA","1716","24422","13200","24924","25740","24216","1721","STROOP_task","5","5228.0","6","1024"
"85","85","863","863","#3d3846","xpyriment","legacy","legacy","n","1","undefined","1","q","undefined","6","6","0","0","0","6","0","6","6","6","0","Mon Dec 15 19:47:19 2025","The main experiment item","False","stroop_task.osexp","C:\Users\jobay\Downloads","False","mono","False","25","60","60","no","white","no","yes","768","legacy","6","6","G:/class task/subject-1.csv","xpyriment","7","6","Neonatal Nightingale","4.1.6","0","q","NA","space","q","816.0","NA","1423","816","11475","space","2","legacy","1024","2","48000","-16","experiment","1","odd","26696","25992","14623","NA","1716","26194","13200","26696","27513","25988","1721","STROOP_task","6","6044.0","7","1024"
"87","87","820","820","#3d3846","xpyriment","legacy","legacy","n","1","undefined","1","q","undefined","7","7","0","0","0","7","0","7","7","7","0","Mon Dec 15 19:47:19 2025","The main experiment item","False","stroop_task.osexp","C:\Users\jobay\Downloads","False","mono","False","25","60","60","no","white","no","yes","768","legacy","7","7","G:/class task/subject-1.csv","xpyriment","6","1","Neonatal Nightingale","4.1.6","0","q","NA","space","q","522.0","NA","1423","522","11475","space","2","legacy","1024","2","48000","-16","experiment","1","odd","28470","27766","14623","NA","1716","27968","13200","28470","28992","27762","1721","STROOP_task","7","6566.0","8","1024"
"77","77","784","784","#3d3846","xpyriment","legacy","legacy","i","0","undefined","0","q","undefined","8","8","0","0","0","8","0","8","8","8","0","Mon Dec 15 19:47:19 2025","The main experiment item","False","stroop_task.osexp","C:\Users\jobay\Downloads","False","mono","False","25","40","80","no","white","no","yes","768","legacy","8","8","G:/class task/subject-1.csv","xpyriment","7","6","Neonatal Nightingale","4.1.6","0","p","NA","space","p","495.0","NA","1423","495","11475","space","2","legacy","1024","2","48000","-16","experiment","1","odd","29954","29250","14623","NA","1716","29452","13200","29954","30450","29246","1721","STROOP_task","7","7061.0","9","1024"
"80","80","764","764","#3d3846","xpyriment","legacy","legacy","i","1","undefined","1","p","undefined","9","9","0","0","0","9","0","9","9","9","0","Mon Dec 15 19:47:19 2025","The main experiment item","False","stroop_task.osexp","C:\Users\jobay\Downloads","False","mono","False","25","80","40","no","white","no","yes","768","legacy","9","9","G:/class task/subject-1.csv","xpyriment","4","9","Neonatal Nightingale","4.1.6","0","p","NA","space","p","580.0","NA","1423","580","11475","space","2","legacy","1024","2","48000","-16","experiment","1","odd","31502","30798","14623","NA","1716","31000","13200","31502","32083","30792","1721","STROOP_task","8","7641.0","10","1024"
"81","81","739","739","#3d3846","xpyriment","legacy","legacy","c","1","undefined","1","q","undefined","10","10","0","0","0","10","0","10","10","10","0","Mon Dec 15 19:47:19 2025","The main experiment item","False","stroop_task.osexp","C:\Users\jobay\Downloads","False","mono","False","25","80","40","no","white","no","yes","768","legacy","10","10","G:/class task/subject-1.csv","xpyriment","7","2","Neonatal Nightingale","4.1.6","0","q","NA","space","q","491.0","NA","1423","491","11475","space","2","legacy","1024","2","48000","-16","experiment","1","odd","33080","32375","14623","NA","1716","32578","13200","33080","33571","32371","1721","STROOP_task","9","8132.0","11","1024"
"83","83","710","710","#3d3846","xpyriment","legacy","legacy","c","1","undefined","1","p","undefined","11","11","0","0","0","11","0","11","11","11","0","Mon Dec 15 19:47:19 2025","The main experiment item","False","stroop_task.osexp","C:\Users\jobay\Downloads","False","mono","False","25","40","80","no","white","no","yes","768","legacy","11","11","G:/class task/subject-1.csv","xpyriment","1","6","Neonatal Nightingale","4.1.6","0","p","NA","space","p","398.0","NA","1423","398","11475","space","2","legacy","1024","2","48000","-16","experiment","1","odd","34550","33846","14623","NA","1716","34048","13200","34550","34948","33842","1721","STROOP_task","10","8530.0","12","1024"
"84","84","700","700","#3d3846","xpyriment","legacy","legacy","n","1","undefined","1","p","undefined","12","12","0","0","0","12","0","12","12","12","0","Mon Dec 15 19:47:19 2025","The main experiment item","False","stroop_task.osexp","C:\Users\jobay\Downloads","False","mono","False","25","60","60","no","white","no","yes","768","legacy","12","12","G:/class task/subject-1.csv","xpyriment","1","2","Neonatal Nightingale","4.1.6","0","p","NA","space","p","580.0","NA","1423","580","11475","space","2","legacy","1024","2","48000","-16","experiment","1","odd","35923","35219","14623","NA","1716","35421","13200","35923","36504","35214","1721","STROOP_task","11","9110.0","13","1024"
"85","85","766","766","#3d3846","xpyriment","legacy","legacy","n","1","undefined","1","p","undefined","13","13","0","0","0","13","0","13","13","13","0","Mon Dec 15 19:47:19 2025","The main experiment item","False","stroop_task.osexp","C:\Users\jobay\Downloads","False","mono","False","25","60","60","no","white","no","yes","768","legacy","13","13","G:/class task/subject-1.csv","xpyriment","6","7","Neonatal Nightingale","4.1.6","0","p","NA","space","p","1627.0","NA","1423","1627","11475","space","2","legacy","1024","2","48000","-16","experiment","1","odd","37477","36773","14623","NA","1716","36975","13200","37477","39104","36768","1721","STROOP_task","12","10737.0","14","1024"
"86","86","778","778","#3d3846","xpyriment","legacy","legacy","i","1","undefined","1","q","undefined","14","14","0","0","0","14","0","14","14","14","0","Mon Dec 15 19:47:19 2025","The main experiment item","False","stroop_task.osexp","C:\Users\jobay\Downloads","False","mono","False","25","40","80","no","white","no","yes","768","legacy","14","14","G:/class task/subject-1.csv","xpyriment","7","2","Neonatal Nightingale","4.1.6","0","q","NA","space","q","939.0","NA","1423","939","11475","space","2","legacy","1024","2","48000","-16","experiment","1","odd","40074","39370","14623","NA","1716","39572","13200","40074","41014","39365","1721","STROOP_task","13","11676.0","15","1024"
"87","87","776","776","#3d3846","xpyriment","legacy","legacy","i","1","undefined","1","p","undefined","15","15","0","0","0","15","0","15","15","15","0","Mon Dec 15 19:47:19 2025","The main experiment item","False","stroop_task.osexp","C:\Users\jobay\Downloads","False","mono","False","25","80","40","no","white","no","yes","768","legacy","15","15","G:/class task/subject-1.csv","xpyriment","3","4","Neonatal Nightingale","4.1.6","0","p","NA","space","p","752.0","NA","1423","752","11475","space","2","legacy","1024","2","48000","-16","experiment","1","odd","41967","41263","14623","NA","1716","41465","13200","41967","42719","41258","1721","STROOP_task","14","12428.0","16","1024"
"88","88","764","764","#3d3846","xpyriment","legacy","legacy","n","1","undefined","1","p","undefined","16","16","0","0","0","16","0","16","16","16","0","Mon Dec 15 19:47:19 2025","The main experiment item","False","stroop_task.osexp","C:\Users\jobay\Downloads","False","mono","False","25","60","60","no","white","no","yes","768","legacy","16","16","G:/class task/subject-1.csv","xpyriment","1","6","Neonatal Nightingale","4.1.6","0","p","NA","space","p","567.0","NA","1423","567","11475","space","2","legacy","1024","2","48000","-16","experiment","1","odd","43712","43008","14623","NA","1716","43210","13200","43712","44280","43003","1721","STROOP_task","15","12995.0","17","1024"
"88","88","786","786","#3d3846","xpyriment","legacy","legacy","i","1","undefined","1","q","undefined","17","17","0","0","0","17","0","17","17","17","0","Mon Dec 15 19:47:19 2025","The main experiment item","False","stroop_task.osexp","C:\Users\jobay\Downloads","False","mono","False","25","40","80","no","white","no","yes","768","legacy","17","17","G:/class task/subject-1.csv","xpyriment","7","6","Neonatal Nightingale","4.1.6","0","q","NA","space","q","1168.0","NA","1423","1168","11475","space","2","legacy","1024","2","48000","-16","experiment","1","odd","45304","44600","14623","NA","1716","44802","13200","45304","46472","44595","1721","STROOP_task","16","14163.0","18","1024"
"89","89","788","788","#3d3846","xpyriment","legacy","legacy","i","1","undefined","1","p","undefined","18","18","0","0","0","18","0","18","18","18","0","Mon Dec 15 19:47:19 2025","The main experiment item","False","stroop_task.osexp","C:\Users\jobay\Downloads","False","mono","False","25","80","40","no","white","no","yes","768","legacy","18","18","G:/class task/subject-1.csv","xpyriment","6","7","Neonatal Nightingale","4.1.6","0","p","NA","space","p","815.0","NA","1423","815","11475","space","2","legacy","1024","2","48000","-16","experiment","1","odd","47453","46749","14623","NA","1716","46951","13200","47453","48268","46745","1721","STROOP_task","17","14978.0","19","1024"
"90","90","790","790","#3d3846","xpyriment","legacy","legacy","i","1","undefined","1","p","undefined","19","19","0","0","0","19","0","19","19","19","0","Mon Dec 15 19:47:19 2025","The main experiment item","False","stroop_task.osexp","C:\Users\jobay\Downloads","False","mono","False","25","80","40","no","white","no","yes","768","legacy","19","19","G:/class task/subject-1.csv","xpyriment","6","7","Neonatal Nightingale","4.1.6","0","p","NA","space","p","835.0","NA","1423","835","11475","space","2","legacy","1024","2","48000","-16","experiment","1","odd","49269","48565","14623","NA","1716","48767","13200","49269","50105","48561","1721","STROOP_task","18","15813.0","20","1024"
"90","90","791","791","#3d3846","xpyriment","legacy","legacy","i","1","undefined","1","q","undefined","20","20","0","0","0","20","0","20","20","20","0","Mon Dec 15 19:47:19 2025","The main experiment item","False","stroop_task.osexp","C:\Users\jobay\Downloads","False","mono","False","25","40","80","no","white","no","yes","768","legacy","20","20","G:/class task/subject-1.csv","xpyriment","7","6","Neonatal Nightingale","4.1.6","0","q","NA","space","q","812.0","NA","1423","812","11475","space","2","legacy","1024","2","48000","-16","experiment","1","odd","51060","50356","14623","NA","1716","50558","13200","51060","51872","50352","1721","STROOP_task","19","16625.0","21","1024"
"90","90","787","787","#3d3846","xpyriment","legacy","legacy","n","1","undefined","1","p","undefined","21","21","0","0","0","21","0","21","21","21","0","Mon Dec 15 19:47:19 2025","The main experiment item","False","stroop_task.osexp","C:\Users\jobay\Downloads","False","mono","False","25","60","60","no","white","no","yes","768","legacy","21","21","G:/class task/subject-1.csv","xpyriment","1","2","Neonatal Nightingale","4.1.6","0","p","NA","space","p","700.0","NA","1423","700","11475","space","2","legacy","1024","2","48000","-16","experiment","1","odd","52818","52114","14623","NA","1716","52316","13200","52818","53519","52109","1721","STROOP_task","20","17325.0","22","1024"
"91","91","773","773","#3d3846","xpyriment","legacy","legacy","c","1","undefined","1","q","undefined","22","22","0","0","0","22","0","22","22","22","0","Mon Dec 15 19:47:19 2025","The main experiment item","False","stroop_task.osexp","C:\Users\jobay\Downloads","False","mono","False","25","80","40","no","white","no","yes","768","legacy","22","22","G:/class task/subject-1.csv","xpyriment","8","3","Neonatal Nightingale","4.1.6","0","q","NA","space","q","458.0","NA","1423","458","11475","space","2","legacy","1024","2","48000","-16","experiment","1","odd","54471","53766","14623","NA","1716","53969","13200","54471","54930","53762","1721","STROOP_task","21","17783.0","23","1024"
"91","91","761","761","#3d3846","xpyriment","legacy","legacy","i","1","undefined","1","p","undefined","23","23","0","0","0","23","0","23","23","23","0","Mon Dec 15 19:47:19 2025","The main experiment item","False","stroop_task.osexp","C:\Users\jobay\Downloads","False","mono","False","25","80","40","no","white","no","yes","768","legacy","23","23","G:/class task/subject-1.csv","xpyriment","2","7","Neonatal Nightingale","4.1.6","0","p","NA","space","p","483.0","NA","1423","483","11475","space","2","legacy","1024","2","48000","-16","experiment","1","odd","55880","55176","14623","NA","1716","55378","13200","55880","56363","55171","1721","STROOP_task","22","18266.0","24","1024"
"92","92","762","762","#3d3846","xpyriment","legacy","legacy","c","1","undefined","1","p","undefined","24","24","0","0","0","24","0","24","24","24","0","Mon Dec 15 19:47:19 2025","The main experiment item","False","stroop_task.osexp","C:\Users\jobay\Downloads","False","mono","False","25","40","80","no","white","no","yes","768","legacy","24","24","G:/class task/subject-1.csv","xpyriment","6","7","Neonatal Nightingale","4.1.6","0","p","NA","space","p","804.0","NA","1423","804","11475","space","2","legacy","1024","2","48000","-16","experiment","1","odd","57265","56561","14623","NA","1716","56763","13200","57265","58069","56557","1721","STROOP_task","23","19070.0","25","1024"
"92","92","753","753","#3d3846","xpyriment","legacy","legacy","c","1","undefined","1","p","undefined","25","25","0","0","0","25","0","25","25","25","0","Mon Dec 15 19:47:19 2025","The main experiment item","False","stroop_task.osexp","C:\Users\jobay\Downloads","False","mono","False","25","40","80","no","white","no","yes","768","legacy","25","25","G:/class task/subject-1.csv","xpyriment","4","9","Neonatal Nightingale","4.1.6","0","p","NA","space","p","518.0","NA","1423","518","11475","space","2","legacy","1024","2","48000","-16","experiment","1","odd","59025","58321","14623","NA","1716","58523","13200","59025","59544","58316","1721","STROOP_task","24","19588.0","26","1024"
"92","92","744","744","#3d3846","xpyriment","legacy","legacy","c","1","undefined","1","q","undefined","26","26","0","0","0","26","0","26","26","26","0","Mon Dec 15 19:47:19 2025","The main experiment item","False","stroop_task.osexp","C:\Users\jobay\Downloads","False","mono","False","25","80","40","no","white","no","yes","768","legacy","26","26","G:/class task/subject-1.csv","xpyriment","9","8","Neonatal Nightingale","4.1.6","0","q","NA","space","q","503.0","NA","1423","503","11475","space","2","legacy","1024","2","48000","-16","experiment","1","odd","60503","59799","14623","NA","1716","60001","13200","60503","61009","59794","1721","STROOP_task","25","20091.0","27","1024"
"92","92","744","744","#3d3846","xpyriment","legacy","legacy","n","1","undefined","1","p","undefined","27","27","0","0","0","27","0","27","27","27","0","Mon Dec 15 19:47:19 2025","The main experiment item","False","stroop_task.osexp","C:\Users\jobay\Downloads","False","mono","False","25","60","60","no","white","no","yes","768","legacy","27","27","G:/class task/subject-1.csv","xpyriment","8","9","Neonatal Nightingale","4.1.6","0","p","NA","space","p","747.0","NA","1423","747","11475","space","2","legacy","1024","2","48000","-16","experiment","1","odd","61959","61255","14623","NA","1716","61457","13200","61959","62707","61251","1721","STROOP_task","26","20838.0","28","1024"
"93","93","736","736","#3d3846","xpyriment","legacy","legacy","i","1","undefined","1","q","undefined","28","28","0","0","0","28","0","28","28","28","0","Mon Dec 15 19:47:19 2025","The main experiment item","False","stroop_task.osexp","C:\Users\jobay\Downloads","False","mono","False","25","40","80","no","white","no","yes","768","legacy","28","28","G:/class task/subject-1.csv","xpyriment","9","4","Neonatal Nightingale","4.1.6","0","q","NA","space","q","522.0","NA","1423","522","11475","space","2","legacy","1024","2","48000","-16","experiment","1","odd","63666","62962","14623","NA","1716","63164","13200","63666","64189","62958","1721","STROOP_task","27","21360.0","29","1024"
"93","93","733","733","#3d3846","xpyriment","legacy","legacy","c","1","undefined","1","p","undefined","29","29","0","0","0","29","0","29","29","29","0","Mon Dec 15 19:47:19 2025","The main experiment item","False","stroop_task.osexp","C:\Users\jobay\Downloads","False","mono","False","25","40","80","no","white","no","yes","768","legacy","29","29","G:/class task/subject-1.csv","xpyriment","1","2","Neonatal Nightingale","4.1.6","0","p","NA","space","p","634.0","NA","1423","634","11475","space","2","legacy","1024","2","48000","-16","experiment","1","odd","65134","64430","14623","NA","1716","64632","13200","65134","65768","64426","1721","STROOP_task","28","21994.0","30","1024"
"93","93","726","726","#3d3846","xpyriment","legacy","legacy","c","1","undefined","1","q","undefined","30","30","0","0","0","30","0","30","30","30","0","Mon Dec 15 19:47:19 2025","The main experiment item","False","stroop_task.osexp","C:\Users\jobay\Downloads","False","mono","False","25","80","40","no","white","no","yes","768","legacy","30","30","G:/class task/subject-1.csv","xpyriment","9","8","Neonatal Nightingale","4.1.6","0","q","NA","space","q","539.0","NA","1423","539","11475","space","2","legacy","1024","2","48000","-16","experiment","1","odd","66749","66045","14623","NA","1716","66247","13200","66749","67288","66041","1721","STROOP_task","29","22533.0","31","1024"
"93","93","733","733","#3d3846","xpyriment","legacy","legacy","i","1","undefined","1","p","undefined","31","31","0","0","0","31","0","31","31","31","0","Mon Dec 15 19:47:19 2025","The main experiment item","False","stroop_task.osexp","C:\Users\jobay\Downloads","False","mono","False","25","80","40","no","white","no","yes","768","legacy","31","31","G:/class task/subject-1.csv","xpyriment","3","4","Neonatal Nightingale","4.1.6","0","p","NA","space","p","949.0","NA","1423","949","11475","space","2","legacy","1024","2","48000","-16","experiment","1","odd","68265","67561","14623","NA","1716","67763","13200","68265","69215","67556","1721","STROOP_task","30","23482.0","32","1024"
"93","93","725","725","#3d3846","xpyriment","legacy","legacy","n","1","undefined","1","p","undefined","32","32","0","0","0","32","0","32","32","32","0","Mon Dec 15 19:47:19 2025","The main experiment item","False","stroop_task.osexp","C:\Users\jobay\Downloads","False","mono","False","25","60","60","no","white","no","yes","768","legacy","32","32","G:/class task/subject-1.csv","xpyriment","2","7","Neonatal Nightingale","4.1.6","0","p","NA","space","p","464.0","NA","1423","464","11475","space","2","legacy","1024","2","48000","-16","experiment","1","odd","70190","69486","14623","NA","1716","69688","13200","70190","70655","69482","1721","STROOP_task","31","23946.0","33","1024"
"94","94","717","717","#3d3846","xpyriment","legacy","legacy","c","1","undefined","1","p","undefined","33","33","0","0","0","33","0","33","33","33","0","Mon Dec 15 19:47:19 2025","The main experiment item","False","stroop_task.osexp","C:\Users\jobay\Downloads","False","mono","False","25","40","80","no","white","no","yes","768","legacy","33","33","G:/class task/subject-1.csv","xpyriment","2","7","Neonatal Nightingale","4.1.6","0","p","NA","space","p","442.0","NA","1423","442","11475","space","2","legacy","1024","2","48000","-16","experiment","1","odd","71633","70929","14623","NA","1716","71131","13200","71633","72076","70924","1721","STROOP_task","32","24388.0","34","1024"
"94","94","715","715","#3d3846","xpyriment","legacy","legacy","n","1","undefined","1","q","undefined","34","34","0","0","0","34","0","34","34","34","0","Mon Dec 15 19:47:19 2025","The main experiment item","False","stroop_task.osexp","C:\Users\jobay\Downloads","False","mono","False","25","60","60","no","white","no","yes","768","legacy","34","34","G:/class task/subject-1.csv","xpyriment","9","4","Neonatal Nightingale","4.1.6","0","q","NA","space","q","647.0","NA","1423","647","11475","space","2","legacy","1024","2","48000","-16","experiment","1","odd","73001","72297","14623","NA","1716","72499","13200","73001","73649","72292","1721","STROOP_task","33","25035.0","35","1024"
"94","94","709","709","#3d3846","xpyriment","legacy","legacy","c","1","undefined","1","p","undefined","35","35","0","0","0","35","0","35","35","35","0","Mon Dec 15 19:47:19 2025","The main experiment item","False","stroop_task.osexp","C:\Users\jobay\Downloads","False","mono","False","25","40","80","no","white","no","yes","768","legacy","35","35","G:/class task/subject-1.csv","xpyriment","6","7","Neonatal Nightingale","4.1.6","0","p","NA","space","p","493.0","NA","1423","493","11475","space","2","legacy","1024","2","48000","-16","experiment","1","odd","74653","73949","14623","NA","1716","74151","13200","74653","75146","73945","1721","STROOP_task","34","25528.0","36","1024"
"94","94","703","703","#3d3846","xpyriment","legacy","legacy","n","1","undefined","1","q","undefined","36","36","0","0","0","36","0","36","36","36","0","Mon Dec 15 19:47:19 2025","The main experiment item","False","stroop_task.osexp","C:\Users\jobay\Downloads","False","mono","False","25","60","60","no","white","no","yes","768","legacy","36","36","G:/class task/subject-1.csv","xpyriment","2","1","Neonatal Nightingale","4.1.6","0","q","NA","space","q","501.0","NA","1423","501","11475","space","2","legacy","1024","2","48000","-16","experiment","1","odd","76102","75398","14623","NA","1716","75600","13200","76102","76604","75393","1721","STROOP_task","35","26029.0","37","1024"
"94","94","704","704","#3d3846","xpyriment","legacy","legacy","c","1","undefined","1","p","undefined","37","37","0","0","0","37","0","37","37","37","0","Mon Dec 15 19:47:19 2025","The main experiment item","False","stroop_task.osexp","C:\Users\jobay\Downloads","False","mono","False","25","40","80","no","white","no","yes","768","legacy","37","37","G:/class task/subject-1.csv","xpyriment","3","4","Neonatal Nightingale","4.1.6","0","p","NA","space","p","735.0","NA","1423","735","11475","space","2","legacy","1024","2","48000","-16","experiment","1","odd","77551","76847","14623","NA","1716","77049","13200","77551","78287","76842","1721","STROOP_task","36","26764.0","38","1024"
"94","94","696","696","#3d3846","xpyriment","legacy","legacy","n","1","undefined","1","q","undefined","38","38","0","0","0","38","0","38","38","38","0","Mon Dec 15 19:47:19 2025","The main experiment item","False","stroop_task.osexp","C:\Users\jobay\Downloads","False","mono","False","25","60","60","no","white","no","yes","768","legacy","38","38","G:/class task/subject-1.csv","xpyriment","7","2","Neonatal Nightingale","4.1.6","0","q","NA","space","q","406.0","NA","1423","406","11475","space","2","legacy","1024","2","48000","-16","experiment","1","odd","79204","78500","14623","NA","1716","78702","13200","79204","79611","78495","1721","STROOP_task","37","27170.0","39","1024"
"95","95","691","691","#3d3846","xpyriment","legacy","legacy","n","1","undefined","1","p","undefined","39","39","0","0","0","39","0","39","39","39","0","Mon Dec 15 19:47:19 2025","The main experiment item","False","stroop_task.osexp","C:\Users\jobay\Downloads","False","mono","False","25","60","60","no","white","no","yes","768","legacy","39","39","G:/class task/subject-1.csv","xpyriment","8","9","Neonatal Nightingale","4.1.6","0","p","NA","space","p","503.0","NA","1423","503","11475","space","2","legacy","1024","2","48000","-16","experiment","1","odd","80563","79859","14623","NA","1716","80061","13200","80563","81067","79854","1721","STROOP_task","38","27673.0","40","1024"
"95","95","687","687","#3d3846","xpyriment","legacy","legacy","n","1","undefined","1","p","undefined","40","40","0","0","0","40","0","40","40","40","0","Mon Dec 15 19:47:19 2025","The main experiment item","False","stroop_task.osexp","C:\Users\jobay\Downloads","False","mono","False","25","60","60","no","white","no","yes","768","legacy","40","40","G:/class task/subject-1.csv","xpyriment","1","6","Neonatal Nightingale","4.1.6","0","p","NA","space","p","510.0","NA","1423","510","11475","space","2","legacy","1024","2","48000","-16","experiment","1","odd","82087","81381","14623","NA","1716","81583","13200","82087","82598","81377","1721","STROOP_task","39","28183.0","41","1024"
"95","95","682","682","#3d3846","xpyriment","legacy","legacy","c","1","undefined","1","q","undefined","41","41","0","0","0","41","0","41","41","41","0","Mon Dec 15 19:47:19 2025","The main experiment item","False","stroop_task.osexp","C:\Users\jobay\Downloads","False","mono","False","25","80","40","no","white","no","yes","768","legacy","41","41","G:/class task/subject-1.csv","xpyriment","6","1","Neonatal Nightingale","4.1.6","0","q","NA","space","q","502.0","NA","1423","502","11475","space","2","legacy","1024","2","48000","-16","experiment","1","odd","83542","82838","14623","NA","1716","83040","13200","83542","84044","82834","1721","STROOP_task","40","28685.0","42","1024"
"95","95","681","681","#3d3846","xpyriment","legacy","legacy","c","1","undefined","1","q","undefined","42","42","0","0","0","42","0","42","42","42","0","Mon Dec 15 19:47:19 2025","The main experiment item","False","stroop_task.osexp","C:\Users\jobay\Downloads","False","mono","False","25","80","40","no","white","no","yes","768","legacy","42","42","G:/class task/subject-1.csv","xpyriment","9","4","Neonatal Nightingale","4.1.6","0","q","NA","space","q","610.0","NA","1423","610","11475","space","2","legacy","1024","2","48000","-16","experiment","1","odd","85006","84302","14623","NA","1716","84504","13200","85006","85617","84298","1721","STROOP_task","41","29295.0","43","1024"
"95","95","676","676","#3d3846","xpyriment","legacy","legacy","c","1","undefined","1","p","undefined","43","43","0","0","0","43","0","43","43","43","0","Mon Dec 15 19:47:19 2025","The main experiment item","False","stroop_task.osexp","C:\Users\jobay\Downloads","False","mono","False","25","40","80","no","white","no","yes","768","legacy","43","43","G:/class task/subject-1.csv","xpyriment","8","9","Neonatal Nightingale","4.1.6","0","p","NA","space","p","478.0","NA","1423","478","11475","space","2","legacy","1024","2","48000","-16","experiment","1","odd","86780","86075","14623","NA","1716","86278","13200","86780","87258","86070","1721","STROOP_task","42","29773.0","44","1024"
"95","95","670","670","#3d3846","xpyriment","legacy","legacy","c","1","undefined","1","q","undefined","44","44","0","0","0","44","0","44","44","44","0","Mon Dec 15 19:47:19 2025","The main experiment item","False","stroop_task.osexp","C:\Users\jobay\Downloads","False","mono","False","25","80","40","no","white","no","yes","768","legacy","44","44","G:/class task/subject-1.csv","xpyriment","9","4","Neonatal Nightingale","4.1.6","0","q","NA","space","q","394.0","NA","1423","394","11475","space","2","legacy","1024","2","48000","-16","experiment","1","odd","88247","87543","14623","NA","1716","87745","13200","88247","88642","87538","1721","STROOP_task","43","30167.0","45","1024"
"95","95","664","664","#3d3846","xpyriment","legacy","legacy","n","1","undefined","1","p","undefined","45","45","0","0","0","45","0","45","45","45","0","Mon Dec 15 19:47:19 2025","The main experiment item","False","stroop_task.osexp","C:\Users\jobay\Downloads","False","mono","False","25","60","60","no","white","no","yes","768","legacy","45","45","G:/class task/subject-1.csv","xpyriment","4","9","Neonatal Nightingale","4.1.6","0","p","NA","space","p","400.0","NA","1423","400","11475","space","2","legacy","1024","2","48000","-16","experiment","1","odd","89649","88945","14623","NA","1716","89147","13200","89649","90050","88940","1721","STROOP_task","44","30567.0","46","1024"
"93","93","669","669","#3d3846","xpyriment","legacy","legacy","n","0","undefined","0","p","undefined","46","46","0","0","0","46","0","46","46","46","0","Mon Dec 15 19:47:19 2025","The main experiment item","False","stroop_task.osexp","C:\Users\jobay\Downloads","False","mono","False","25","60","60","no","white","no","yes","768","legacy","46","46","G:/class task/subject-1.csv","xpyriment","3","4","Neonatal Nightingale","4.1.6","0","q","NA","space","q","879.0","NA","1423","879","11475","space","2","legacy","1024","2","48000","-16","experiment","1","odd","91024","90320","14623","NA","1716","90522","13200","91024","91904","90315","1721","STROOP_task","44","31446.0","47","1024"
"91","91","661","661","#3d3846","xpyriment","legacy","legacy","n","0","undefined","0","q","undefined","47","47","0","0","0","47","0","47","47","47","0","Mon Dec 15 19:47:19 2025","The main experiment item","False","stroop_task.osexp","C:\Users\jobay\Downloads","False","mono","False","25","60","60","no","white","no","yes","768","legacy","47","47","G:/class task/subject-1.csv","xpyriment","9","4","Neonatal Nightingale","4.1.6","0","p","NA","space","p","322.0","NA","1423","322","11475","space","2","legacy","1024","2","48000","-16","experiment","1","odd","92872","92168","14623","NA","1716","92370","13200","92872","93195","92164","1721","STROOP_task","44","31768.0","48","1024"
"91","91","658","658","#3d3846","xpyriment","legacy","legacy","c","1","undefined","1","p","undefined","48","48","0","0","0","48","0","48","48","48","0","Mon Dec 15 19:47:19 2025","The main experiment item","False","stroop_task.osexp","C:\Users\jobay\Downloads","False","mono","False","25","40","80","no","white","no","yes","768","legacy","48","48","G:/class task/subject-1.csv","xpyriment","2","7","Neonatal Nightingale","4.1.6","0","p","NA","space","p","514.0","NA","1423","514","11475","space","2","legacy","1024","2","48000","-16","experiment","1","odd","94181","93476","14623","NA","1716","93679","13200","94181","94696","93472","1721","STROOP_task","45","32282.0","49","1024"
"92","92","653","653","#3d3846","xpyriment","legacy","legacy","c","1","undefined","1","q","undefined","49","49","0","0","0","49","0","49","49","49","0","Mon Dec 15 19:47:19 2025","The main experiment item","False","stroop_task.osexp","C:\Users\jobay\Downloads","False","mono","False","25","80","40","no","white","no","yes","768","legacy","49","49","G:/class task/subject-1.csv","xpyriment","7","6","Neonatal Nightingale","4.1.6","0","q","NA","space","q","405.0","NA","1423","405","11475","space","2","legacy","1024","2","48000","-16","experiment","1","odd","95754","95050","14623","NA","1716","95252","13200","95754","96160","95045","1721","STROOP_task","46","32687.0","50","1024"
"92","92","647","647","#3d3846","xpyriment","legacy","legacy","c","1","undefined","1","p","undefined","50","50","0","0","0","50","0","50","50","50","0","Mon Dec 15 19:47:19 2025","The main experiment item","False","stroop_task.osexp","C:\Users\jobay\Downloads","False","mono","False","25","40","80","no","white","no","yes","768","legacy","50","50","G:/class task/subject-1.csv","xpyriment","3","8","Neonatal Nightingale","4.1.6","0","p","NA","space","p","333.0","NA","1423","333","11475","space","2","legacy","1024","2","48000","-16","experiment","1","odd","97129","96425","14623","NA","1716","96627","13200","97129","97462","96421","1721","STROOP_task","47","33020.0","51","1024"
"92","92","650","650","#3d3846","xpyriment","legacy","legacy","i","1","undefined","1","q","undefined","51","51","0","0","0","51","0","51","51","51","0","Mon Dec 15 19:47:19 2025","The main experiment item","False","stroop_task.osexp","C:\Users\jobay\Downloads","False","mono","False","25","40","80","no","white","no","yes","768","legacy","51","51","G:/class task/subject-1.csv","xpyriment","4","3","Neonatal Nightingale","4.1.6","0","q","NA","space","q","824.0","NA","1423","824","11475","space","2","legacy","1024","2","48000","-16","experiment","1","odd","98445","97741","14623","NA","1716","97943","13200","98445","99270","97736","1721","STROOP_task","48","33844.0","52","1024"
"92","92","650","650","#3d3846","xpyriment","legacy","legacy","i","1","undefined","1","q","undefined","52","52","0","0","0","52","0","52","52","52","0","Mon Dec 15 19:47:19 2025","The main experiment item","False","stroop_task.osexp","C:\Users\jobay\Downloads","False","mono","False","25","40","80","no","white","no","yes","768","legacy","52","52","G:/class task/subject-1.csv","xpyriment","7","2","Neonatal Nightingale","4.1.6","0","q","NA","space","q","648.0","NA","1423","648","11475","space","2","legacy","1024","2","48000","-16","experiment","1","odd","100244","99540","14623","NA","1716","99742","13200","100244","100893","99535","1721","STROOP_task","49","34492.0","53","1024"
"92","92","649","649","#3d3846","xpyriment","legacy","legacy","i","1","undefined","1","p","undefined","53","53","0","0","0","53","0","53","53","53","0","Mon Dec 15 19:47:19 2025","The main experiment item","False","stroop_task.osexp","C:\Users\jobay\Downloads","False","mono","False","25","80","40","no","white","no","yes","768","legacy","53","53","G:/class task/subject-1.csv","xpyriment","1","6","Neonatal Nightingale","4.1.6","0","p","NA","space","p","580.0","NA","1423","580","11475","space","2","legacy","1024","2","48000","-16","experiment","1","odd","101895","101190","14623","NA","1716","101393","13200","101895","102475","101186","1721","STROOP_task","50","35072.0","54","1024"
"92","92","648","648","#3d3846","xpyriment","legacy","legacy","i","1","undefined","1","p","undefined","54","54","0","0","0","54","0","54","54","54","0","Mon Dec 15 19:47:19 2025","The main experiment item","False","stroop_task.osexp","C:\Users\jobay\Downloads","False","mono","False","25","80","40","no","white","no","yes","768","legacy","54","54","G:/class task/subject-1.csv","xpyriment","8","9","Neonatal Nightingale","4.1.6","0","p","NA","space","p","605.0","NA","1423","605","11475","space","2","legacy","1024","2","48000","-16","experiment","1","odd","103434","102730","14623","NA","1716","102932","13200","103434","104040","102725","1721","STROOP_task","51","35677.0","55","1024"
"92","92","654","654","#3d3846","xpyriment","legacy","legacy","n","1","undefined","1","q","undefined","55","55","0","0","0","55","0","55","55","55","0","Mon Dec 15 19:47:19 2025","The main experiment item","False","stroop_task.osexp","C:\Users\jobay\Downloads","False","mono","False","25","60","60","no","white","no","yes","768","legacy","55","55","G:/class task/subject-1.csv","xpyriment","9","8","Neonatal Nightingale","4.1.6","0","q","NA","space","q","984.0","NA","1423","984","11475","space","2","legacy","1024","2","48000","-16","experiment","1","odd","104991","104287","14623","NA","1716","104489","13200","104991","105975","104283","1721","STROOP_task","52","36661.0","56","1024"
"92","92","651","651","#3d3846","xpyriment","legacy","legacy","c","1","undefined","1","q","undefined","56","56","0","0","0","56","0","56","56","56","0","Mon Dec 15 19:47:19 2025","The main experiment item","False","stroop_task.osexp","C:\Users\jobay\Downloads","False","mono","False","25","80","40","no","white","no","yes","768","legacy","56","56","G:/class task/subject-1.csv","xpyriment","9","8","Neonatal Nightingale","4.1.6","0","q","NA","space","q","499.0","NA","1423","499","11475","space","2","legacy","1024","2","48000","-16","experiment","1","odd","106936","106232","14623","NA","1716","106434","13200","106936","107436","106228","1721","STROOP_task","53","37160.0","57","1024"
"93","93","653","653","#3d3846","xpyriment","legacy","legacy","i","1","undefined","1","p","undefined","57","57","0","0","0","57","0","57","57","57","0","Mon Dec 15 19:47:19 2025","The main experiment item","False","stroop_task.osexp","C:\Users\jobay\Downloads","False","mono","False","25","80","40","no","white","no","yes","768","legacy","57","57","G:/class task/subject-1.csv","xpyriment","3","4","Neonatal Nightingale","4.1.6","0","p","NA","space","p","760.0","NA","1423","760","11475","space","2","legacy","1024","2","48000","-16","experiment","1","odd","108390","107686","14623","NA","1716","107888","13200","108390","109150","107682","1721","STROOP_task","54","37920.0","58","1024"
"93","93","651","651","#3d3846","xpyriment","legacy","legacy","n","1","undefined","1","q","undefined","58","58","0","0","0","58","0","58","58","58","0","Mon Dec 15 19:47:19 2025","The main experiment item","False","stroop_task.osexp","C:\Users\jobay\Downloads","False","mono","False","25","60","60","no","white","no","yes","768","legacy","58","58","G:/class task/subject-1.csv","xpyriment","6","1","Neonatal Nightingale","4.1.6","0","q","NA","space","q","521.0","NA","1423","521","11475","space","2","legacy","1024","2","48000","-16","experiment","1","odd","110106","109402","14623","NA","1716","109604","13200","110106","110627","109397","1721","STROOP_task","55","38441.0","59","1024"
"93","93","649","649","#3d3846","xpyriment","legacy","legacy","n","1","undefined","1","q","undefined","59","59","0","0","0","59","0","59","59","59","0","Mon Dec 15 19:47:19 2025","The main experiment item","False","stroop_task.osexp","C:\Users\jobay\Downloads","False","mono","False","25","60","60","no","white","no","yes","768","legacy","59","59","G:/class task/subject-1.csv","xpyriment","7","2","Neonatal Nightingale","4.1.6","0","q","NA","space","q","551.0","NA","1423","551","11475","space","2","legacy","1024","2","48000","-16","experiment","1","odd","111586","110882","14623","NA","1716","111084","13200","111586","112138","110878","1721","STROOP_task","56","38992.0","60","1024"
"93","93","646","646","#3d3846","xpyriment","legacy","legacy","n","1","undefined","1","p","undefined","60","60","0","0","0","60","0","60","60","60","0","Mon Dec 15 19:47:19 2025","The main experiment item","False","stroop_task.osexp","C:\Users\jobay\Downloads","False","mono","False","25","60","60","no","white","no","yes","768","legacy","60","60","G:/class task/subject-1.csv","xpyriment","8","9","Neonatal Nightingale","4.1.6","0","p","NA","space","p","471.0","NA","1423","471","11475","space","2","legacy","1024","2","48000","-16","experiment","1","odd","113088","112384","14623","NA","1716","112586","13200","113088","113560","112380","1721","STROOP_task","57","39463.0","61","1024"
"93","93","645","645","#3d3846","xpyriment","legacy","legacy","n","1","undefined","1","p","undefined","61","61","0","0","0","61","0","61","61","61","0","Mon Dec 15 19:47:19 2025","The main experiment item","False","stroop_task.osexp","C:\Users\jobay\Downloads","False","mono","False","25","60","60","no","white","no","yes","768","legacy","61","61","G:/class task/subject-1.csv","xpyriment","3","8","Neonatal Nightingale","4.1.6","0","p","NA","space","p","550.0","NA","1423","550","11475","space","2","legacy","1024","2","48000","-16","experiment","1","odd","114464","113760","14623","NA","1716","113962","13200","114464","115015","113756","1721","STROOP_task","58","40013.0","62","1024"
"93","93","641","641","#3d3846","xpyriment","legacy","legacy","n","1","undefined","1","p","undefined","62","62","0","0","0","62","0","62","62","62","0","Mon Dec 15 19:47:19 2025","The main experiment item","False","stroop_task.osexp","C:\Users\jobay\Downloads","False","mono","False","25","60","60","no","white","no","yes","768","legacy","62","62","G:/class task/subject-1.csv","xpyriment","3","8","Neonatal Nightingale","4.1.6","0","p","NA","space","p","372.0","NA","1423","372","11475","space","2","legacy","1024","2","48000","-16","experiment","1","odd","115969","115265","14623","NA","1716","115467","13200","115969","116342","115261","1721","STROOP_task","59","40385.0","63","1024"
"93","93","638","638","#3d3846","xpyriment","legacy","legacy","c","1","undefined","1","q","undefined","63","63","0","0","0","63","0","63","63","63","0","Mon Dec 15 19:47:19 2025","The main experiment item","False","stroop_task.osexp","C:\Users\jobay\Downloads","False","mono","False","25","80","40","no","white","no","yes","768","legacy","63","63","G:/class task/subject-1.csv","xpyriment","6","1","Neonatal Nightingale","4.1.6","0","q","NA","space","q","473.0","NA","1423","473","11475","space","2","legacy","1024","2","48000","-16","experiment","1","odd","117298","116594","14623","NA","1716","116796","13200","117298","117772","116590","1721","STROOP_task","60","40858.0","64","1024"
"93","93","637","637","#3d3846","xpyriment","legacy","legacy","i","1","undefined","1","q","undefined","64","64","0","0","0","64","0","64","64","64","0","Mon Dec 15 19:47:19 2025","The main experiment item","False","stroop_task.osexp","C:\Users\jobay\Downloads","False","mono","False","25","40","80","no","white","no","yes","768","legacy","64","64","G:/class task/subject-1.csv","xpyriment","2","1","Neonatal Nightingale","4.1.6","0","q","NA","space","q","604.0","NA","1423","604","11475","space","2","legacy","1024","2","48000","-16","experiment","1","odd","118730","118026","14623","NA","1716","118228","13200","118730","119334","118022","1721","STROOP_task","61","41462.0","65","1024"
"92","92","634","634","#3d3846","xpyriment","legacy","legacy","i","0","undefined","0","q","undefined","65","65","0","0","0","65","0","65","65","65","0","Mon Dec 15 19:47:19 2025","The main experiment item","False","stroop_task.osexp","C:\Users\jobay\Downloads","False","mono","False","25","40","80","no","white","no","yes","768","legacy","65","65","G:/class task/subject-1.csv","xpyriment","9","8","Neonatal Nightingale","4.1.6","0","p","NA","space","p","422.0","NA","1423","422","11475","space","2","legacy","1024","2","48000","-16","experiment","1","odd","120318","119614","14623","NA","1716","119816","13200","120318","120741","119610","1721","STROOP_task","61","41884.0","66","1024"
"92","92","630","630","#3d3846","xpyriment","legacy","legacy","c","1","undefined","1","q","undefined","66","66","0","0","0","66","0","66","66","66","0","Mon Dec 15 19:47:19 2025","The main experiment item","False","stroop_task.osexp","C:\Users\jobay\Downloads","False","mono","False","25","80","40","no","white","no","yes","768","legacy","66","66","G:/class task/subject-1.csv","xpyriment","2","1","Neonatal Nightingale","4.1.6","0","q","NA","space","q","372.0","NA","1423","372","11475","space","2","legacy","1024","2","48000","-16","experiment","1","odd","121711","121007","14623","NA","1716","121209","13200","121711","122084","121003","1721","STROOP_task","62","42256.0","67","1024"
"91","91","627","627","#3d3846","xpyriment","legacy","legacy","i","0","undefined","0","q","undefined","67","67","0","0","0","67","0","67","67","67","0","Mon Dec 15 19:47:19 2025","The main experiment item","False","stroop_task.osexp","C:\Users\jobay\Downloads","False","mono","False","25","40","80","no","white","no","yes","768","legacy","67","67","G:/class task/subject-1.csv","xpyriment","9","4","Neonatal Nightingale","4.1.6","0","p","NA","space","p","401.0","NA","1423","401","11475","space","2","legacy","1024","2","48000","-16","experiment","1","odd","123061","122357","14623","NA","1716","122559","13200","123061","123462","122352","1721","STROOP_task","62","42657.0","68","1024"
"91","91","623","623","#3d3846","xpyriment","legacy","legacy","n","1","undefined","1","q","undefined","68","68","0","0","0","68","0","68","68","68","0","Mon Dec 15 19:47:19 2025","The main experiment item","False","stroop_task.osexp","C:\Users\jobay\Downloads","False","mono","False","25","60","60","no","white","no","yes","768","legacy","68","68","G:/class task/subject-1.csv","xpyriment","4","3","Neonatal Nightingale","4.1.6","0","q","NA","space","q","348.0","NA","1423","348","11475","space","2","legacy","1024","2","48000","-16","experiment","1","odd","124392","123688","14623","NA","1716","123890","13200","124392","124741","123683","1721","STROOP_task","63","43005.0","69","1024"
"91","91","619","619","#3d3846","xpyriment","legacy","legacy","c","1","undefined","1","p","undefined","69","69","0","0","0","69","0","69","69","69","0","Mon Dec 15 19:47:19 2025","The main experiment item","False","stroop_task.osexp","C:\Users\jobay\Downloads","False","mono","False","25","40","80","no","white","no","yes","768","legacy","69","69","G:/class task/subject-1.csv","xpyriment","3","4","Neonatal Nightingale","4.1.6","0","p","NA","space","p","369.0","NA","1423","369","11475","space","2","legacy","1024","2","48000","-16","experiment","1","odd","125725","125021","14623","NA","1716","125223","13200","125725","126094","125016","1721","STROOP_task","64","43374.0","70","1024"
"91","91","617","617","#3d3846","xpyriment","legacy","legacy","i","1","undefined","1","q","undefined","70","70","0","0","0","70","0","70","70","70","0","Mon Dec 15 19:47:19 2025","The main experiment item","False","stroop_task.osexp","C:\Users\jobay\Downloads","False","mono","False","25","40","80","no","white","no","yes","768","legacy","70","70","G:/class task/subject-1.csv","xpyriment","7","2","Neonatal Nightingale","4.1.6","0","q","NA","space","q","496.0","NA","1423","496","11475","space","2","legacy","1024","2","48000","-16","experiment","1","odd","127110","126406","14623","NA","1716","126608","13200","127110","127606","126402","1721","STROOP_task","65","43870.0","71","1024"
"91","91","617","617","#3d3846","xpyriment","legacy","legacy","i","1","undefined","1","q","undefined","71","71","0","0","0","71","0","71","71","71","0","Mon Dec 15 19:47:19 2025","The main experiment item","False","stroop_task.osexp","C:\Users\jobay\Downloads","False","mono","False","25","40","80","no","white","no","yes","768","legacy","71","71","G:/class task/subject-1.csv","xpyriment","4","3","Neonatal Nightingale","4.1.6","0","q","NA","space","q","580.0","NA","1423","580","11475","space","2","legacy","1024","2","48000","-16","experiment","1","odd","128566","127862","14623","NA","1716","128064","13200","128566","129147","127858","1721","STROOP_task","66","44450.0","72","1024"
"91","91","615","615","#3d3846","xpyriment","legacy","legacy","n","1","undefined","1","p","undefined","72","72","0","0","0","72","0","72","72","72","0","Mon Dec 15 19:47:19 2025","The main experiment item","False","stroop_task.osexp","C:\Users\jobay\Downloads","False","mono","False","25","60","60","no","white","no","yes","768","legacy","72","72","G:/class task/subject-1.csv","xpyriment","1","6","Neonatal Nightingale","4.1.6","0","p","NA","space","p","487.0","NA","1423","487","11475","space","2","legacy","1024","2","48000","-16","experiment","1","odd","130099","129395","14623","NA","1716","129597","13200","130099","130586","129391","1721","STROOP_task","67","44937.0","73","1024"
"91","91","614","614","#3d3846","xpyriment","legacy","legacy","c","1","undefined","1","q","undefined","73","73","0","0","0","73","0","73","73","73","0","Mon Dec 15 19:47:19 2025","The main experiment item","False","stroop_task.osexp","C:\Users\jobay\Downloads","False","mono","False","25","80","40","no","white","no","yes","768","legacy","73","73","G:/class task/subject-1.csv","xpyriment","7","6","Neonatal Nightingale","4.1.6","0","q","NA","space","q","508.0","NA","1423","508","11475","space","2","legacy","1024","2","48000","-16","experiment","1","odd","131551","130846","14623","NA","1716","131049","13200","131551","132060","130842","1721","STROOP_task","68","45445.0","74","1024"
"92","92","612","612","#3d3846","xpyriment","legacy","legacy","c","1","undefined","1","p","undefined","74","74","0","0","0","74","0","74","74","74","0","Mon Dec 15 19:47:19 2025","The main experiment item","False","stroop_task.osexp","C:\Users\jobay\Downloads","False","mono","False","25","40","80","no","white","no","yes","768","legacy","74","74","G:/class task/subject-1.csv","xpyriment","1","2","Neonatal Nightingale","4.1.6","0","p","NA","space","p","475.0","NA","1423","475","11475","space","2","legacy","1024","2","48000","-16","experiment","1","odd","133019","132315","14623","NA","1716","132517","13200","133019","133495","132311","1721","STROOP_task","69","45920.0","75","1024"
"92","92","1699","1699","#3d3846","xpyriment","legacy","legacy","i","1","undefined","1","p","undefined","75","75","0","0","0","75","0","75","75","75","0","Mon Dec 15 19:47:19 2025","The main experiment item","False","stroop_task.osexp","C:\Users\jobay\Downloads","False","mono","False","25","80","40","no","white","no","yes","768","legacy","75","75","G:/class task/subject-1.csv","xpyriment","3","8","Neonatal Nightingale","4.1.6","0","p","NA","space","p","83238.0","NA","1423","83238","11475","space","2","legacy","1024","2","48000","-16","experiment","1","odd","134405","133701","14623","NA","1716","133903","13200","134405","217643","133696","1721","STROOP_task","70","129158.0","76","1024"
"92","92","1685","1685","#3d3846","xpyriment","legacy","legacy","n","1","undefined","1","q","undefined","76","76","0","0","0","76","0","76","76","76","0","Mon Dec 15 19:47:19 2025","The main experiment item","False","stroop_task.osexp","C:\Users\jobay\Downloads","False","mono","False","25","60","60","no","white","no","yes","768","legacy","76","76","G:/class task/subject-1.csv","xpyriment","2","1","Neonatal Nightingale","4.1.6","0","q","NA","space","q","630.0","NA","1423","630","11475","space","2","legacy","1024","2","48000","-16","experiment","1","odd","218860","218154","14623","NA","1716","218358","13200","218860","219491","218149","1721","STROOP_task","71","129788.0","77","1024"
"92","92","1676","1676","#3d3846","xpyriment","legacy","legacy","n","1","undefined","1","p","undefined","77","77","0","0","0","77","0","77","77","77","0","Mon Dec 15 19:47:19 2025","The main experiment item","False","stroop_task.osexp","C:\Users\jobay\Downloads","False","mono","False","25","60","60","no","white","no","yes","768","legacy","77","77","G:/class task/subject-1.csv","xpyriment","6","7","Neonatal Nightingale","4.1.6","0","p","NA","space","p","946.0","NA","1423","946","11475","space","2","legacy","1024","2","48000","-16","experiment","1","odd","220411","219707","14623","NA","1716","219909","13200","220411","221358","219702","1721","STROOP_task","72","130734.0","78","1024"
"92","92","1661","1661","#3d3846","xpyriment","legacy","legacy","i","1","undefined","1","p","undefined","78","78","0","0","0","78","0","78","78","78","0","Mon Dec 15 19:47:19 2025","The main experiment item","False","stroop_task.osexp","C:\Users\jobay\Downloads","False","mono","False","25","80","40","no","white","no","yes","768","legacy","78","78","G:/class task/subject-1.csv","xpyriment","4","9","Neonatal Nightingale","4.1.6","0","p","NA","space","p","542.0","NA","1423","542","11475","space","2","legacy","1024","2","48000","-16","experiment","1","odd","222343","221639","14623","NA","1716","221841","13200","222343","222886","221635","1721","STROOP_task","73","131276.0","79","1024"
"92","92","1646","1646","#3d3846","xpyriment","legacy","legacy","c","1","undefined","1","p","undefined","79","79","0","0","0","79","0","79","79","79","0","Mon Dec 15 19:47:19 2025","The main experiment item","False","stroop_task.osexp","C:\Users\jobay\Downloads","False","mono","False","25","40","80","no","white","no","yes","768","legacy","79","79","G:/class task/subject-1.csv","xpyriment","6","7","Neonatal Nightingale","4.1.6","0","p","NA","space","p","440.0","NA","1423","440","11475","space","2","legacy","1024","2","48000","-16","experiment","1","odd","223854","223150","14623","NA","1716","223352","13200","223854","224295","223145","1721","STROOP_task","74","131716.0","80","1024"
"91","91","1633","1633","#3d3846","xpyriment","legacy","legacy","i","0","undefined","0","p","undefined","80","80","0","0","0","80","0","80","80","80","0","Mon Dec 15 19:47:19 2025","The main experiment item","False","stroop_task.osexp","C:\Users\jobay\Downloads","False","mono","False","25","80","40","no","white","no","yes","768","legacy","80","80","G:/class task/subject-1.csv","xpyriment","8","9","Neonatal Nightingale","4.1.6","0","q","NA","space","q","611.0","NA","1423","611","11475","space","2","legacy","1024","2","48000","-16","experiment","1","odd","225280","224576","14623","NA","1716","224778","13200","225280","225892","224571","1721","STROOP_task","74","132327.0","81","1024"
"91","91","1620","1620","#3d3846","xpyriment","legacy","legacy","i","1","undefined","1","p","undefined","81","81","0","0","0","81","0","81","81","81","0","Mon Dec 15 19:47:19 2025","The main experiment item","False","stroop_task.osexp","C:\Users\jobay\Downloads","False","mono","False","25","80","40","no","white","no","yes","768","legacy","81","81","G:/class task/subject-1.csv","xpyriment","3","8","Neonatal Nightingale","4.1.6","0","p","NA","space","p","516.0","NA","1423","516","11475","space","2","legacy","1024","2","48000","-16","experiment","1","odd","226864","226159","14623","NA","1716","226362","13200","226864","227380","226154","1721","STROOP_task","75","132843.0","82","1024"
"91","91","1607","1607","#3d3846","xpyriment","legacy","legacy","c","1","undefined","1","q","undefined","82","82","0","0","0","82","0","82","82","82","0","Mon Dec 15 19:47:19 2025","The main experiment item","False","stroop_task.osexp","C:\Users\jobay\Downloads","False","mono","False","25","80","40","no","white","no","yes","768","legacy","82","82","G:/class task/subject-1.csv","xpyriment","7","2","Neonatal Nightingale","4.1.6","0","q","NA","space","q","569.0","NA","1423","569","11475","space","2","legacy","1024","2","48000","-16","experiment","1","odd","228362","227658","14623","NA","1716","227860","13200","228362","228932","227654","1721","STROOP_task","76","133412.0","83","1024"
"91","91","1601","1601","#3d3846","xpyriment","legacy","legacy","i","1","undefined","1","q","undefined","83","83","0","0","0","83","0","83","83","83","0","Mon Dec 15 19:47:19 2025","The main experiment item","False","stroop_task.osexp","C:\Users\jobay\Downloads","False","mono","False","25","40","80","no","white","no","yes","768","legacy","83","83","G:/class task/subject-1.csv","xpyriment","2","1","Neonatal Nightingale","4.1.6","0","q","NA","space","q","1077.0","NA","1423","1077","11475","space","2","legacy","1024","2","48000","-16","experiment","1","odd","229907","229203","14623","NA","1716","229405","13200","229907","230985","229199","1721","STROOP_task","77","134489.0","84","1024"
"91","91","1588","1588","#3d3846","xpyriment","legacy","legacy","c","1","undefined","1","p","undefined","84","84","0","0","0","84","0","84","84","84","0","Mon Dec 15 19:47:19 2025","The main experiment item","False","stroop_task.osexp","C:\Users\jobay\Downloads","False","mono","False","25","40","80","no","white","no","yes","768","legacy","84","84","G:/class task/subject-1.csv","xpyriment","8","9","Neonatal Nightingale","4.1.6","0","p","NA","space","p","560.0","NA","1423","560","11475","space","2","legacy","1024","2","48000","-16","experiment","1","odd","231975","231271","14623","NA","1716","231473","13200","231975","232536","231266","1721","STROOP_task","78","135049.0","85","1024"
"91","91","1586","1586","#3d3846","xpyriment","legacy","legacy","n","1","undefined","1","q","undefined","85","85","0","0","0","85","0","85","85","85","0","Mon Dec 15 19:47:19 2025","The main experiment item","False","stroop_task.osexp","C:\Users\jobay\Downloads","False","mono","False","25","60","60","no","white","no","yes","768","legacy","85","85","G:/class task/subject-1.csv","xpyriment","8","3","Neonatal Nightingale","4.1.6","0","q","NA","space","q","1430.0","NA","1423","1430","11475","space","2","legacy","1024","2","48000","-16","experiment","1","odd","233511","232807","14623","NA","1716","233009","13200","233511","234942","232803","1721","STROOP_task","79","136479.0","86","1024"
"91","91","1580","1580","#3d3846","xpyriment","legacy","legacy","i","1","undefined","1","p","undefined","86","86","0","0","0","86","0","86","86","86","0","Mon Dec 15 19:47:19 2025","The main experiment item","False","stroop_task.osexp","C:\Users\jobay\Downloads","False","mono","False","25","80","40","no","white","no","yes","768","legacy","86","86","G:/class task/subject-1.csv","xpyriment","3","4","Neonatal Nightingale","4.1.6","0","p","NA","space","p","1051.0","NA","1423","1051","11475","space","2","legacy","1024","2","48000","-16","experiment","1","odd","235864","235160","14623","NA","1716","235362","13200","235864","236915","235156","1721","STROOP_task","80","137530.0","87","1024"
"92","92","1569","1569","#3d3846","xpyriment","legacy","legacy","n","1","undefined","1","p","undefined","87","87","0","0","0","87","0","87","87","87","0","Mon Dec 15 19:47:19 2025","The main experiment item","False","stroop_task.osexp","C:\Users\jobay\Downloads","False","mono","False","25","60","60","no","white","no","yes","768","legacy","87","87","G:/class task/subject-1.csv","xpyriment","3","8","Neonatal Nightingale","4.1.6","0","p","NA","space","p","591.0","NA","1423","591","11475","space","2","legacy","1024","2","48000","-16","experiment","1","odd","237929","237225","14623","NA","1716","237427","13200","237929","238521","237220","1721","STROOP_task","81","138121.0","88","1024"
"92","92","1558","1558","#3d3846","xpyriment","legacy","legacy","c","1","undefined","1","q","undefined","88","88","0","0","0","88","0","88","88","88","0","Mon Dec 15 19:47:19 2025","The main experiment item","False","stroop_task.osexp","C:\Users\jobay\Downloads","False","mono","False","25","80","40","no","white","no","yes","768","legacy","88","88","G:/class task/subject-1.csv","xpyriment","4","3","Neonatal Nightingale","4.1.6","0","q","NA","space","q","564.0","NA","1423","564","11475","space","2","legacy","1024","2","48000","-16","experiment","1","odd","239486","238782","14623","NA","1716","238984","13200","239486","240051","238778","1721","STROOP_task","82","138685.0","89","1024"
"92","92","1555","1555","#3d3846","xpyriment","legacy","legacy","i","1","undefined","1","p","undefined","89","89","0","0","0","89","0","89","89","89","0","Mon Dec 15 19:47:19 2025","The main experiment item","False","stroop_task.osexp","C:\Users\jobay\Downloads","False","mono","False","25","80","40","no","white","no","yes","768","legacy","89","89","G:/class task/subject-1.csv","xpyriment","8","9","Neonatal Nightingale","4.1.6","0","p","NA","space","p","1354.0","NA","1423","1354","11475","space","2","legacy","1024","2","48000","-16","experiment","1","odd","241018","240314","14623","NA","1716","240516","13200","241018","242373","240308","1721","STROOP_task","83","140039.0","90","1024"
"92","92","1549","1549","#3d3846","xpyriment","legacy","legacy","n","1","undefined","1","q","undefined","90","90","0","0","0","90","0","90","90","90","0","Mon Dec 15 19:47:19 2025","The main experiment item","False","stroop_task.osexp","C:\Users\jobay\Downloads","False","mono","False","25","60","60","no","white","no","yes","768","legacy","90","90","G:/class task/subject-1.csv","xpyriment","2","1","Neonatal Nightingale","4.1.6","0","q","NA","space","q","951.0","NA","1423","951","11475","space","2","legacy","1024","2","48000","-16","experiment","1","odd","243327","242623","14623","NA","1716","242825","13200","243327","244278","242619","1721","STROOP_task","84","140990.0","91","1024"
"92","92","1544","1544","#3d3846","xpyriment","legacy","legacy","i","1","undefined","1","q","undefined","91","91","0","0","0","91","0","91","91","91","0","Mon Dec 15 19:47:19 2025","The main experiment item","False","stroop_task.osexp","C:\Users\jobay\Downloads","False","mono","False","25","40","80","no","white","no","yes","768","legacy","91","91","G:/class task/subject-1.csv","xpyriment","6","1","Neonatal Nightingale","4.1.6","0","q","NA","space","q","1146.0","NA","1423","1146","11475","space","2","legacy","1024","2","48000","-16","experiment","1","odd","245237","244533","14623","NA","1716","244735","13200","245238","246385","244528","1721","STROOP_task","85","142136.0","92","1024"
"92","92","1558","1558","#3d3846","xpyriment","legacy","legacy","i","1","undefined","1","q","undefined","92","92","0","0","0","92","0","92","92","92","0","Mon Dec 15 19:47:19 2025","The main experiment item","False","stroop_task.osexp","C:\Users\jobay\Downloads","False","mono","False","25","40","80","no","white","no","yes","768","legacy","92","92","G:/class task/subject-1.csv","xpyriment","4","3","Neonatal Nightingale","4.1.6","0","q","NA","space","q","2844.0","NA","1423","2844","11475","space","2","legacy","1024","2","48000","-16","experiment","1","odd","247346","246642","14623","NA","1716","246844","13200","247346","250191","246638","1721","STROOP_task","86","144980.0","93","1024"
"92","92","1554","1554","#3d3846","xpyriment","legacy","legacy","i","1","undefined","1","p","undefined","93","93","0","0","0","93","0","93","93","93","0","Mon Dec 15 19:47:19 2025","The main experiment item","False","stroop_task.osexp","C:\Users\jobay\Downloads","False","mono","False","25","80","40","no","white","no","yes","768","legacy","93","93","G:/class task/subject-1.csv","xpyriment","3","8","Neonatal Nightingale","4.1.6","0","p","NA","space","p","1150.0","NA","1423","1150","11475","space","2","legacy","1024","2","48000","-16","experiment","1","odd","251162","250455","14623","NA","1716","250658","13200","251162","252313","250451","1721","STROOP_task","87","146130.0","94","1024"
"92","92","1545","1545","#3d3846","xpyriment","legacy","legacy","i","1","undefined","1","q","undefined","94","94","0","0","0","94","0","94","94","94","0","Mon Dec 15 19:47:19 2025","The main experiment item","False","stroop_task.osexp","C:\Users\jobay\Downloads","False","mono","False","25","40","80","no","white","no","yes","768","legacy","94","94","G:/class task/subject-1.csv","xpyriment","4","3","Neonatal Nightingale","4.1.6","0","q","NA","space","q","667.0","NA","1423","667","11475","space","2","legacy","1024","2","48000","-16","experiment","1","odd","253270","252566","14623","NA","1716","252768","13200","253270","253938","252562","1721","STROOP_task","88","146797.0","95","1024"
"92","92","1539","1539","#3d3846","xpyriment","legacy","legacy","n","1","undefined","1","q","undefined","95","95","0","0","0","95","0","95","95","95","0","Mon Dec 15 19:47:19 2025","The main experiment item","False","stroop_task.osexp","C:\Users\jobay\Downloads","False","mono","False","25","60","60","no","white","no","yes","768","legacy","95","95","G:/class task/subject-1.csv","xpyriment","9","8","Neonatal Nightingale","4.1.6","0","q","NA","space","q","978.0","NA","1423","978","11475","space","2","legacy","1024","2","48000","-16","experiment","1","odd","254885","254181","14623","NA","1716","254383","13200","254885","255863","254176","1721","STROOP_task","89","147775.0","96","1024"
"92","92","1543","1543","#3d3846","xpyriment","legacy","legacy","n","1","undefined","1","q","undefined","96","96","0","0","0","96","0","96","96","96","0","Mon Dec 15 19:47:19 2025","The main experiment item","False","stroop_task.osexp","C:\Users\jobay\Downloads","False","mono","False","25","60","60","no","white","no","yes","768","legacy","96","96","G:/class task/subject-1.csv","xpyriment","7","2","Neonatal Nightingale","4.1.6","0","q","NA","space","q","1945.0","NA","1423","1945","11475","space","2","legacy","1024","2","48000","-16","experiment","1","odd","256813","256109","14623","NA","1716","256311","13200","256813","258759","256104","1721","STROOP_task","90","149720.0","97","1024"
"92","92","1533","1533","#3d3846","xpyriment","legacy","legacy","n","1","undefined","1","q","undefined","97","97","0","0","0","97","0","97","97","97","0","Mon Dec 15 19:47:19 2025","The main experiment item","False","stroop_task.osexp","C:\Users\jobay\Downloads","False","mono","False","25","60","60","no","white","no","yes","768","legacy","97","97","G:/class task/subject-1.csv","xpyriment","9","8","Neonatal Nightingale","4.1.6","0","q","NA","space","q","583.0","NA","1423","583","11475","space","2","legacy","1024","2","48000","-16","experiment","1","odd","259741","259037","14623","NA","1716","259239","13200","259741","260324","259032","1721","STROOP_task","91","150303.0","98","1024"
"92","92","1530","1530","#3d3846","xpyriment","legacy","legacy","n","1","undefined","1","p","undefined","98","98","0","0","0","98","0","98","98","98","0","Mon Dec 15 19:47:19 2025","The main experiment item","False","stroop_task.osexp","C:\Users\jobay\Downloads","False","mono","False","25","60","60","no","white","no","yes","768","legacy","98","98","G:/class task/subject-1.csv","xpyriment","3","4","Neonatal Nightingale","4.1.6","0","p","NA","space","p","1243.0","NA","1423","1243","11475","space","2","legacy","1024","2","48000","-16","experiment","1","odd","261298","260594","14623","NA","1716","260796","13200","261298","262541","260590","1721","STROOP_task","92","151546.0","99","1024"
"93","93","1523","1523","#3d3846","xpyriment","legacy","legacy","n","1","undefined","1","p","undefined","99","99","0","0","0","99","0","99","99","99","0","Mon Dec 15 19:47:19 2025","The main experiment item","False","stroop_task.osexp","C:\Users\jobay\Downloads","False","mono","False","25","60","60","no","white","no","yes","768","legacy","99","99","G:/class task/subject-1.csv","xpyriment","6","7","Neonatal Nightingale","4.1.6","0","p","NA","space","p","761.0","NA","1423","761","11475","space","2","legacy","1024","2","48000","-16","experiment","1","odd","263531","262827","14623","NA","1716","263029","13200","263531","264292","262822","1721","STROOP_task","93","152307.0","100","1024"
"93","93","1516","1516","#3d3846","xpyriment","legacy","legacy","i","1","undefined","1","p","undefined","100","100","0","0","0","100","0","100","100","100","0","Mon Dec 15 19:47:19 2025","The main experiment item","False","stroop_task.osexp","C:\Users\jobay\Downloads","False","mono","False","25","80","40","no","white","no","yes","768","legacy","100","100","G:/class task/subject-1.csv","xpyriment","2","7","Neonatal Nightingale","4.1.6","0","p","NA","space","p","908.0","NA","1423","908","11475","space","2","legacy","1024","2","48000","-16","experiment","1","odd","265287","264583","14623","NA","1716","264785","13200","265287","266196","264579","1721","STROOP_task","94","153215.0","101","1024"
"93","93","1508","1508","#3d3846","xpyriment","legacy","legacy","c","1","undefined","1","p","undefined","101","101","0","0","0","101","0","101","101","101","0","Mon Dec 15 19:47:19 2025","The main experiment item","False","stroop_task.osexp","C:\Users\jobay\Downloads","False","mono","False","25","40","80","no","white","no","yes","768","legacy","101","101","G:/class task/subject-1.csv","xpyriment","1","6","Neonatal Nightingale","4.1.6","0","p","NA","space","p","662.0","NA","1423","662","11475","space","2","legacy","1024","2","48000","-16","experiment","1","odd","267168","266464","14623","NA","1716","266666","13200","267168","267831","266460","1721","STROOP_task","95","153877.0","102","1024"
"93","93","1498","1498","#3d3846","xpyriment","legacy","legacy","n","1","undefined","1","q","undefined","102","102","0","0","0","102","0","102","102","102","0","Mon Dec 15 19:47:19 2025","The main experiment item","False","stroop_task.osexp","C:\Users\jobay\Downloads","False","mono","False","25","60","60","no","white","no","yes","768","legacy","102","102","G:/class task/subject-1.csv","xpyriment","2","1","Neonatal Nightingale","4.1.6","0","q","NA","space","q","482.0","NA","1423","482","11475","space","2","legacy","1024","2","48000","-16","experiment","1","odd","268802","268098","14623","NA","1716","268300","13200","268802","269284","268093","1721","STROOP_task","96","154359.0","103","1024"
"93","93","1490","1490","#3d3846","xpyriment","legacy","legacy","c","1","undefined","1","p","undefined","103","103","0","0","0","103","0","103","103","103","0","Mon Dec 15 19:47:19 2025","The main experiment item","False","stroop_task.osexp","C:\Users\jobay\Downloads","False","mono","False","25","40","80","no","white","no","yes","768","legacy","103","103","G:/class task/subject-1.csv","xpyriment","8","9","Neonatal Nightingale","4.1.6","0","p","NA","space","p","681.0","NA","1423","681","11475","space","2","legacy","1024","2","48000","-16","experiment","1","odd","270258","269554","14623","NA","1716","269756","13200","270258","270941","269550","1721","STROOP_task","97","155040.0","104","1024"
"93","93","1480","1480","#3d3846","xpyriment","legacy","legacy","c","1","undefined","1","q","undefined","104","104","0","0","0","104","0","104","104","104","0","Mon Dec 15 19:47:19 2025","The main experiment item","False","stroop_task.osexp","C:\Users\jobay\Downloads","False","mono","False","25","80","40","no","white","no","yes","768","legacy","104","104","G:/class task/subject-1.csv","xpyriment","8","3","Neonatal Nightingale","4.1.6","0","q","NA","space","q","464.0","NA","1423","464","11475","space","2","legacy","1024","2","48000","-16","experiment","1","odd","271955","271251","14623","NA","1716","271453","13200","271955","272420","271246","1721","STROOP_task","98","155504.0","105","1024"
"92","92","1477","1477","#3d3846","xpyriment","legacy","legacy","n","0","undefined","0","q","undefined","105","105","0","0","0","105","0","105","105","105","0","Mon Dec 15 19:47:19 2025","The main experiment item","False","stroop_task.osexp","C:\Users\jobay\Downloads","False","mono","False","25","60","60","no","white","no","yes","768","legacy","105","105","G:/class task/subject-1.csv","xpyriment","7","6","Neonatal Nightingale","4.1.6","0","p","NA","space","p","1112.0","NA","1423","1112","11475","space","2","legacy","1024","2","48000","-16","experiment","1","odd","273372","272668","14623","NA","1716","272870","13200","273372","274484","272663","1721","STROOP_task","98","156616.0","106","1024"
"91","91","1467","1467","#3d3846","xpyriment","legacy","legacy","i","0","undefined","0","p","undefined","106","106","0","0","0","106","0","106","106","106","0","Mon Dec 15 19:47:19 2025","The main experiment item","False","stroop_task.osexp","C:\Users\jobay\Downloads","False","mono","False","25","80","40","no","white","no","yes","768","legacy","106","106","G:/class task/subject-1.csv","xpyriment","6","7","Neonatal Nightingale","4.1.6","0","q","NA","space","q","402.0","NA","1423","402","11475","space","2","legacy","1024","2","48000","-16","experiment","1","odd","275440","274736","14623","NA","1716","274938","13200","275440","275842","274731","1721","STROOP_task","98","157018.0","107","1024"
"91","91","1458","1458","#3d3846","xpyriment","legacy","legacy","n","1","undefined","1","p","undefined","107","107","0","0","0","107","0","107","107","107","0","Mon Dec 15 19:47:19 2025","The main experiment item","False","stroop_task.osexp","C:\Users\jobay\Downloads","False","mono","False","25","60","60","no","white","no","yes","768","legacy","107","107","G:/class task/subject-1.csv","xpyriment","4","9","Neonatal Nightingale","4.1.6","0","p","NA","space","p","459.0","NA","1423","459","11475","space","2","legacy","1024","2","48000","-16","experiment","1","odd","276802","276098","14623","NA","1716","276300","13200","276803","277263","276093","1721","STROOP_task","99","157477.0","108","1024"
"91","91","1449","1449","#3d3846","xpyriment","legacy","legacy","i","1","undefined","1","q","undefined","108","108","0","0","0","108","0","108","108","108","0","Mon Dec 15 19:47:19 2025","The main experiment item","False","stroop_task.osexp","C:\Users\jobay\Downloads","False","mono","False","25","40","80","no","white","no","yes","768","legacy","108","108","G:/class task/subject-1.csv","xpyriment","6","1","Neonatal Nightingale","4.1.6","0","q","NA","space","q","555.0","NA","1423","555","11475","space","2","legacy","1024","2","48000","-16","experiment","1","odd","278219","277515","14623","NA","1716","277717","13200","278219","278775","277511","1721","STROOP_task","100","158032.0","109","1024"
"91","91","1440","1440","#3d3846","xpyriment","legacy","legacy","c","1","undefined","1","p","undefined","109","109","0","0","0","109","0","109","109","109","0","Mon Dec 15 19:47:19 2025","The main experiment item","False","stroop_task.osexp","C:\Users\jobay\Downloads","False","mono","False","25","40","80","no","white","no","yes","768","legacy","109","109","G:/class task/subject-1.csv","xpyriment","4","9","Neonatal Nightingale","4.1.6","0","p","NA","space","p","425.0","NA","1423","425","11475","space","2","legacy","1024","2","48000","-16","experiment","1","odd","279737","279033","14623","NA","1716","279235","13200","279737","280163","279028","1721","STROOP_task","101","158457.0","110","1024"
"90","90","1433","1433","#3d3846","xpyriment","legacy","legacy","i","0","undefined","0","p","undefined","110","110","0","0","0","110","0","110","110","110","0","Mon Dec 15 19:47:19 2025","The main experiment item","False","stroop_task.osexp","C:\Users\jobay\Downloads","False","mono","False","25","80","40","no","white","no","yes","768","legacy","110","110","G:/class task/subject-1.csv","xpyriment","2","7","Neonatal Nightingale","4.1.6","0","q","NA","space","q","668.0","NA","1423","668","11475","space","2","legacy","1024","2","48000","-16","experiment","1","odd","281123","280417","14623","NA","1716","280621","13200","281123","281792","280412","1721","STROOP_task","101","159125.0","111","1024"
"91","91","1427","1427","#3d3846","xpyriment","legacy","legacy","n","1","undefined","1","q","undefined","111","111","0","0","0","111","0","111","111","111","0","Mon Dec 15 19:47:19 2025","The main experiment item","False","stroop_task.osexp","C:\Users\jobay\Downloads","False","mono","False","25","60","60","no","white","no","yes","768","legacy","111","111","G:/class task/subject-1.csv","xpyriment","8","3","Neonatal Nightingale","4.1.6","0","q","NA","space","q","783.0","NA","1423","783","11475","space","2","legacy","1024","2","48000","-16","experiment","1","odd","282745","282041","14623","NA","1716","282243","13200","282745","283528","282037","1721","STROOP_task","102","159908.0","112","1024"
"91","91","1419","1419","#3d3846","xpyriment","legacy","legacy","c","1","undefined","1","p","undefined","112","112","0","0","0","112","0","112","112","112","0","Mon Dec 15 19:47:19 2025","The main experiment item","False","stroop_task.osexp","C:\Users\jobay\Downloads","False","mono","False","25","40","80","no","white","no","yes","768","legacy","112","112","G:/class task/subject-1.csv","xpyriment","2","7","Neonatal Nightingale","4.1.6","0","p","NA","space","p","460.0","NA","1423","460","11475","space","2","legacy","1024","2","48000","-16","experiment","1","odd","284478","283774","14623","NA","1716","283976","13200","284478","284939","283769","1721","STROOP_task","103","160368.0","113","1024"
"91","91","1414","1414","#3d3846","xpyriment","legacy","legacy","n","1","undefined","1","q","undefined","113","113","0","0","0","113","0","113","113","113","0","Mon Dec 15 19:47:19 2025","The main experiment item","False","stroop_task.osexp","C:\Users\jobay\Downloads","False","mono","False","25","60","60","no","white","no","yes","768","legacy","113","113","G:/class task/subject-1.csv","xpyriment","6","1","Neonatal Nightingale","4.1.6","0","q","NA","space","q","850.0","NA","1423","850","11475","space","2","legacy","1024","2","48000","-16","experiment","1","odd","285891","285187","14623","NA","1716","285389","13200","285891","286742","285183","1721","STROOP_task","104","161218.0","114","1024"
"91","91","1406","1406","#3d3846","xpyriment","legacy","legacy","c","1","undefined","1","p","undefined","114","114","0","0","0","114","0","114","114","114","0","Mon Dec 15 19:47:19 2025","The main experiment item","False","stroop_task.osexp","C:\Users\jobay\Downloads","False","mono","False","25","40","80","no","white","no","yes","768","legacy","114","114","G:/class task/subject-1.csv","xpyriment","6","7","Neonatal Nightingale","4.1.6","0","p","NA","space","p","511.0","NA","1423","511","11475","space","2","legacy","1024","2","48000","-16","experiment","1","odd","287636","286932","14623","NA","1716","287134","13200","287636","288148","286928","1721","STROOP_task","105","161729.0","115","1024"
"91","91","1398","1398","#3d3846","xpyriment","legacy","legacy","c","1","undefined","1","p","undefined","115","115","0","0","0","115","0","115","115","115","0","Mon Dec 15 19:47:19 2025","The main experiment item","False","stroop_task.osexp","C:\Users\jobay\Downloads","False","mono","False","25","40","80","no","white","no","yes","768","legacy","115","115","G:/class task/subject-1.csv","xpyriment","4","9","Neonatal Nightingale","4.1.6","0","p","NA","space","p","499.0","NA","1423","499","11475","space","2","legacy","1024","2","48000","-16","experiment","1","odd","289115","288411","14623","NA","1716","288613","13200","289115","289615","288407","1721","STROOP_task","106","162228.0","116","1024"
"91","91","1389","1389","#3d3846","xpyriment","legacy","legacy","c","1","undefined","1","q","undefined","116","116","0","0","0","116","0","116","116","116","0","Mon Dec 15 19:47:19 2025","The main experiment item","False","stroop_task.osexp","C:\Users\jobay\Downloads","False","mono","False","25","80","40","no","white","no","yes","768","legacy","116","116","G:/class task/subject-1.csv","xpyriment","4","3","Neonatal Nightingale","4.1.6","0","q","NA","space","q","379.0","NA","1423","379","11475","space","2","legacy","1024","2","48000","-16","experiment","1","odd","290601","289897","14623","NA","1716","290099","13200","290601","290981","289893","1721","STROOP_task","107","162607.0","117","1024"
"91","91","1381","1381","#3d3846","xpyriment","legacy","legacy","n","1","undefined","1","p","undefined","117","117","0","0","0","117","0","117","117","117","0","Mon Dec 15 19:47:19 2025","The main experiment item","False","stroop_task.osexp","C:\Users\jobay\Downloads","False","mono","False","25","60","60","no","white","no","yes","768","legacy","117","117","G:/class task/subject-1.csv","xpyriment","1","6","Neonatal Nightingale","4.1.6","0","p","NA","space","p","450.0","NA","1423","450","11475","space","2","legacy","1024","2","48000","-16","experiment","1","odd","291954","291250","14623","NA","1716","291452","13200","291954","292405","291246","1721","STROOP_task","108","163057.0","118","1024"
"91","91","1373","1373","#3d3846","xpyriment","legacy","legacy","c","1","undefined","1","q","undefined","118","118","0","0","0","118","0","118","118","118","0","Mon Dec 15 19:47:19 2025","The main experiment item","False","stroop_task.osexp","C:\Users\jobay\Downloads","False","mono","False","25","80","40","no","white","no","yes","768","legacy","118","118","G:/class task/subject-1.csv","xpyriment","7","6","Neonatal Nightingale","4.1.6","0","q","NA","space","q","436.0","NA","1423","436","11475","space","2","legacy","1024","2","48000","-16","experiment","1","odd","293384","292680","14623","NA","1716","292882","13200","293384","293821","292675","1721","STROOP_task","109","163493.0","119","1024"
"90","90","1367","1367","#3d3846","xpyriment","legacy","legacy","i","0","undefined","0","q","undefined","119","119","0","0","0","119","0","119","119","119","0","Mon Dec 15 19:47:19 2025","The main experiment item","False","stroop_task.osexp","C:\Users\jobay\Downloads","False","mono","False","25","40","80","no","white","no","yes","768","legacy","119","119","G:/class task/subject-1.csv","xpyriment","9","8","Neonatal Nightingale","4.1.6","0","p","NA","space","p","611.0","NA","1423","611","11475","space","2","legacy","1024","2","48000","-16","experiment","1","odd","294800","294095","14623","NA","1716","294298","13200","294800","295412","294091","1721","STROOP_task","109","164104.0","120","1024"
"90","90","1359","1359","#3d3846","xpyriment","legacy","legacy","n","1","undefined","1","q","undefined","120","120","0","0","0","120","0","120","120","120","0","Mon Dec 15 19:47:19 2025","The main experiment item","False","stroop_task.osexp","C:\Users\jobay\Downloads","False","mono","False","25","60","60","no","white","no","yes","768","legacy","120","120","G:/class task/subject-1.csv","xpyriment","7","6","Neonatal Nightingale","4.1.6","0","q","NA","space","q","449.0","NA","1423","449","11475","space","2","legacy","1024","2","48000","-16","experiment","1","odd","296380","295676","14623","NA","1716","295878","13200","296380","296830","295671","1721","STROOP_task","110","164553.0","121","1024"
"90","90","1354","1354","#3d3846","xpyriment","legacy","legacy","n","0","undefined","0","q","undefined","121","121","0","0","0","121","0","121","121","121","0","Mon Dec 15 19:47:19 2025","The main experiment item","False","stroop_task.osexp","C:\Users\jobay\Downloads","False","mono","False","25","60","60","no","white","no","yes","768","legacy","121","121","G:/class task/subject-1.csv","xpyriment","7","6","Neonatal Nightingale","4.1.6","0","p","NA","space","p","707.0","NA","1423","707","11475","space","2","legacy","1024","2","48000","-16","experiment","1","odd","297842","297138","14623","NA","1716","297340","13200","297842","298549","297133","1721","STROOP_task","110","165260.0","122","1024"
"90","90","1347","1347","#3d3846","xpyriment","legacy","legacy","c","1","undefined","1","q","undefined","122","122","0","0","0","122","0","122","122","122","0","Mon Dec 15 19:47:19 2025","The main experiment item","False","stroop_task.osexp","C:\Users\jobay\Downloads","False","mono","False","25","80","40","no","white","no","yes","768","legacy","122","122","G:/class task/subject-1.csv","xpyriment","9","4","Neonatal Nightingale","4.1.6","0","q","NA","space","q","524.0","NA","1423","524","11475","space","2","legacy","1024","2","48000","-16","experiment","1","odd","299497","298793","14623","NA","1716","298995","13200","299497","300023","298788","1721","STROOP_task","111","165784.0","123","1024"
"90","90","1344","1344","#3d3846","xpyriment","legacy","legacy","n","1","undefined","1","q","undefined","123","123","0","0","0","123","0","123","123","123","0","Mon Dec 15 19:47:19 2025","The main experiment item","False","stroop_task.osexp","C:\Users\jobay\Downloads","False","mono","False","25","60","60","no","white","no","yes","768","legacy","123","123","G:/class task/subject-1.csv","xpyriment","9","4","Neonatal Nightingale","4.1.6","0","q","NA","space","q","933.0","NA","1423","933","11475","space","2","legacy","1024","2","48000","-16","experiment","1","odd","300993","300289","14623","NA","1716","300491","13200","300993","301927","300285","1721","STROOP_task","112","166717.0","124","1024"
"89","89","1338","1338","#3d3846","xpyriment","legacy","legacy","i","0","undefined","0","q","undefined","124","124","0","0","0","124","0","124","124","124","0","Mon Dec 15 19:47:19 2025","The main experiment item","False","stroop_task.osexp","C:\Users\jobay\Downloads","False","mono","False","25","40","80","no","white","no","yes","768","legacy","124","124","G:/class task/subject-1.csv","xpyriment","9","4","Neonatal Nightingale","4.1.6","0","p","NA","space","p","552.0","NA","1423","552","11475","space","2","legacy","1024","2","48000","-16","experiment","1","odd","302878","302174","14623","NA","1716","302376","13200","302878","303431","302169","1721","STROOP_task","112","167269.0","125","1024"
"89","89","1331","1331","#3d3846","xpyriment","legacy","legacy","c","1","undefined","1","q","undefined","125","125","0","0","0","125","0","125","125","125","0","Mon Dec 15 19:47:19 2025","The main experiment item","False","stroop_task.osexp","C:\Users\jobay\Downloads","False","mono","False","25","80","40","no","white","no","yes","768","legacy","125","125","G:/class task/subject-1.csv","xpyriment","7","2","Neonatal Nightingale","4.1.6","0","q","NA","space","q","554.0","NA","1423","554","11475","space","2","legacy","1024","2","48000","-16","experiment","1","odd","304386","303682","14623","NA","1716","303884","13200","304386","304941","303677","1721","STROOP_task","113","167823.0","126","1024"
"88","88","1327","1327","#3d3846","xpyriment","legacy","legacy","n","0","undefined","0","q","undefined","126","126","0","0","0","126","0","126","126","126","0","Mon Dec 15 19:47:19 2025","The main experiment item","False","stroop_task.osexp","C:\Users\jobay\Downloads","False","mono","False","25","60","60","no","white","no","yes","768","legacy","126","126","G:/class task/subject-1.csv","xpyriment","4","3","Neonatal Nightingale","4.1.6","0","p","NA","space","p","789.0","NA","1423","789","11475","space","2","legacy","1024","2","48000","-16","experiment","1","odd","305895","305191","14623","NA","1716","305393","13200","305895","306685","305186","1721","STROOP_task","113","168612.0","127","1024"
"89","89","1322","1322","#3d3846","xpyriment","legacy","legacy","n","1","undefined","1","q","undefined","127","127","0","0","0","127","0","127","127","127","0","Mon Dec 15 19:47:19 2025","The main experiment item","False","stroop_task.osexp","C:\Users\jobay\Downloads","False","mono","False","25","60","60","no","white","no","yes","768","legacy","127","127","G:/class task/subject-1.csv","xpyriment","9","4","Neonatal Nightingale","4.1.6","0","q","NA","space","q","693.0","NA","1423","693","11475","space","2","legacy","1024","2","48000","-16","experiment","1","odd","307641","306935","14623","NA","1716","307139","13200","307641","308336","306930","1721","STROOP_task","114","169305.0","128","1024"
"89","89","1317","1317","#3d3846","xpyriment","legacy","legacy","c","1","undefined","1","p","undefined","128","128","0","0","0","128","0","128","128","128","0","Mon Dec 15 19:47:19 2025","The main experiment item","False","stroop_task.osexp","C:\Users\jobay\Downloads","False","mono","False","25","40","80","no","white","no","yes","768","legacy","128","128","G:/class task/subject-1.csv","xpyriment","3","4","Neonatal Nightingale","4.1.6","0","p","NA","space","p","622.0","NA","1423","622","11475","space","2","legacy","1024","2","48000","-16","experiment","1","odd","309282","308578","14623","NA","1716","308780","13200","309282","309905","308574","1721","STROOP_task","115","169927.0","129","1024"
"88","88","1311","1311","#3d3846","xpyriment","legacy","legacy","n","0","undefined","0","p","undefined","129","129","0","0","0","129","0","129","129","129","0","Mon Dec 15 19:47:19 2025","The main experiment item","False","stroop_task.osexp","C:\Users\jobay\Downloads","False","mono","False","25","60","60","no","white","no","yes","768","legacy","129","129","G:/class task/subject-1.csv","xpyriment","3","4","Neonatal Nightingale","4.1.6","0","q","NA","space","q","525.0","NA","1423","525","11475","space","2","legacy","1024","2","48000","-16","experiment","1","odd","310863","310157","14623","NA","1716","310361","13200","310863","311389","310153","1721","STROOP_task","115","170452.0","130","1024"
"88","88","1308","1308","#3d3846","xpyriment","legacy","legacy","c","1","undefined","1","q","undefined","130","130","0","0","0","130","0","130","130","130","0","Mon Dec 15 19:47:19 2025","The main experiment item","False","stroop_task.osexp","C:\Users\jobay\Downloads","False","mono","False","25","80","40","no","white","no","yes","768","legacy","130","130","G:/class task/subject-1.csv","xpyriment","2","1","Neonatal Nightingale","4.1.6","0","q","NA","space","q","929.0","NA","1423","929","11475","space","2","legacy","1024","2","48000","-16","experiment","1","odd","312344","311640","14623","NA","1716","311842","13200","312344","313274","311636","1721","STROOP_task","116","171381.0","131","1024"
"87","87","1307","1307","#3d3846","xpyriment","legacy","legacy","i","0","undefined","0","q","undefined","131","131","0","0","0","131","0","131","131","131","0","Mon Dec 15 19:47:19 2025","The main experiment item","False","stroop_task.osexp","C:\Users\jobay\Downloads","False","mono","False","25","40","80","no","white","no","yes","768","legacy","131","131","G:/class task/subject-1.csv","xpyriment","9","8","Neonatal Nightingale","4.1.6","0","p","NA","space","p","1207.0","NA","1423","1207","11475","space","2","legacy","1024","2","48000","-16","experiment","1","odd","314226","313522","14623","NA","1716","313724","13200","314226","315434","313518","1721","STROOP_task","116","172588.0","132","1024"
"87","87","1302","1302","#3d3846","xpyriment","legacy","legacy","i","0","undefined","0","p","undefined","132","132","0","0","0","132","0","132","132","132","0","Mon Dec 15 19:47:19 2025","The main experiment item","False","stroop_task.osexp","C:\Users\jobay\Downloads","False","mono","False","25","80","40","no","white","no","yes","768","legacy","132","132","G:/class task/subject-1.csv","xpyriment","1","2","Neonatal Nightingale","4.1.6","0","q","NA","space","q","613.0","NA","1423","613","11475","space","2","legacy","1024","2","48000","-16","experiment","1","odd","316407","315703","14623","NA","1716","315905","13200","316407","317021","315699","1721","STROOP_task","116","173201.0","133","1024"
"87","87","1298","1298","#3d3846","xpyriment","legacy","legacy","c","1","undefined","1","p","undefined","133","133","0","0","0","133","0","133","133","133","0","Mon Dec 15 19:47:19 2025","The main experiment item","False","stroop_task.osexp","C:\Users\jobay\Downloads","False","mono","False","25","40","80","no","white","no","yes","768","legacy","133","133","G:/class task/subject-1.csv","xpyriment","3","8","Neonatal Nightingale","4.1.6","0","p","NA","space","p","751.0","NA","1423","751","11475","space","2","legacy","1024","2","48000","-16","experiment","1","odd","318005","317301","14623","NA","1716","317503","13200","318005","318757","317297","1721","STROOP_task","117","173952.0","134","1024"
"87","87","1294","1294","#3d3846","xpyriment","legacy","legacy","i","1","undefined","1","q","undefined","134","134","0","0","0","134","0","134","134","134","0","Mon Dec 15 19:47:19 2025","The main experiment item","False","stroop_task.osexp","C:\Users\jobay\Downloads","False","mono","False","25","40","80","no","white","no","yes","768","legacy","134","134","G:/class task/subject-1.csv","xpyriment","8","3","Neonatal Nightingale","4.1.6","0","q","NA","space","q","853.0","NA","1423","853","11475","space","2","legacy","1024","2","48000","-16","experiment","1","odd","319727","319023","14623","NA","1716","319225","13200","319727","320581","319018","1721","STROOP_task","118","174805.0","135","1024"
"87","87","1289","1289","#3d3846","xpyriment","legacy","legacy","i","1","undefined","1","q","undefined","135","135","0","0","0","135","0","135","135","135","0","Mon Dec 15 19:47:19 2025","The main experiment item","False","stroop_task.osexp","C:\Users\jobay\Downloads","False","mono","False","25","40","80","no","white","no","yes","768","legacy","135","135","G:/class task/subject-1.csv","xpyriment","8","3","Neonatal Nightingale","4.1.6","0","q","NA","space","q","558.0","NA","1423","558","11475","space","2","legacy","1024","2","48000","-16","experiment","1","odd","321561","320857","14623","NA","1716","321059","13200","321561","322119","320853","1721","STROOP_task","119","175363.0","136","1024"
"87","87","1285","1285","#3d3846","xpyriment","legacy","legacy","i","1","undefined","1","p","undefined","136","136","0","0","0","136","0","136","136","136","0","Mon Dec 15 19:47:19 2025","The main experiment item","False","stroop_task.osexp","C:\Users\jobay\Downloads","False","mono","False","25","80","40","no","white","no","yes","768","legacy","136","136","G:/class task/subject-1.csv","xpyriment","4","9","Neonatal Nightingale","4.1.6","0","p","NA","space","p","733.0","NA","1423","733","11475","space","2","legacy","1024","2","48000","-16","experiment","1","odd","323084","322380","14623","NA","1716","322582","13200","323084","323818","322376","1721","STROOP_task","120","176096.0","137","1024"
"87","87","1280","1280","#3d3846","xpyriment","legacy","legacy","c","1","undefined","1","p","undefined","137","137","0","0","0","137","0","137","137","137","0","Mon Dec 15 19:47:19 2025","The main experiment item","False","stroop_task.osexp","C:\Users\jobay\Downloads","False","mono","False","25","40","80","no","white","no","yes","768","legacy","137","137","G:/class task/subject-1.csv","xpyriment","4","9","Neonatal Nightingale","4.1.6","0","p","NA","space","p","590.0","NA","1423","590","11475","space","2","legacy","1024","2","48000","-16","experiment","1","odd","324785","324081","14623","NA","1716","324283","13200","324785","325376","324077","1721","STROOP_task","121","176686.0","138","1024"
"87","87","1284","1284","#3d3846","xpyriment","legacy","legacy","i","0","undefined","0","q","undefined","138","138","0","0","0","138","0","138","138","138","0","Mon Dec 15 19:47:19 2025","The main experiment item","False","stroop_task.osexp","C:\Users\jobay\Downloads","False","mono","False","25","40","80","no","white","no","yes","768","legacy","138","138","G:/class task/subject-1.csv","xpyriment","7","6","Neonatal Nightingale","4.1.6","0","p","NA","space","p","1794.0","NA","1423","1794","11475","space","2","legacy","1024","2","48000","-16","experiment","1","odd","326393","325689","14623","NA","1716","325891","13200","326393","328189","325684","1721","STROOP_task","121","178480.0","139","1024"
"87","87","1279","1279","#3d3846","xpyriment","legacy","legacy","i","1","undefined","1","q","undefined","139","139","0","0","0","139","0","139","139","139","0","Mon Dec 15 19:47:19 2025","The main experiment item","False","stroop_task.osexp","C:\Users\jobay\Downloads","False","mono","False","25","40","80","no","white","no","yes","768","legacy","139","139","G:/class task/subject-1.csv","xpyriment","9","8","Neonatal Nightingale","4.1.6","0","q","NA","space","q","711.0","NA","1423","711","11475","space","2","legacy","1024","2","48000","-16","experiment","1","odd","329147","328443","14623","NA","1716","328645","13200","329147","329859","328439","1721","STROOP_task","122","179191.0","140","1024"
"87","87","1289","1289","#3d3846","xpyriment","legacy","legacy","n","1","undefined","1","q","undefined","140","140","0","0","0","140","0","140","140","140","0","Mon Dec 15 19:47:19 2025","The main experiment item","False","stroop_task.osexp","C:\Users\jobay\Downloads","False","mono","False","25","60","60","no","white","no","yes","768","legacy","140","140","G:/class task/subject-1.csv","xpyriment","9","8","Neonatal Nightingale","4.1.6","0","q","NA","space","q","2681.0","NA","1423","2681","11475","space","2","legacy","1024","2","48000","-16","experiment","1","odd","330821","330117","14623","NA","1716","330319","13200","330821","333503","330112","1721","STROOP_task","123","181872.0","141","1024"
"87","87","1284","1284","#3d3846","xpyriment","legacy","legacy","i","1","undefined","1","q","undefined","141","141","0","0","0","141","0","141","141","141","0","Mon Dec 15 19:47:19 2025","The main experiment item","False","stroop_task.osexp","C:\Users\jobay\Downloads","False","mono","False","25","40","80","no","white","no","yes","768","legacy","141","141","G:/class task/subject-1.csv","xpyriment","6","1","Neonatal Nightingale","4.1.6","0","q","NA","space","q","579.0","NA","1423","579","11475","space","2","legacy","1024","2","48000","-16","experiment","1","odd","334464","333759","14623","NA","1716","333961","13200","334464","335044","333754","1721","STROOP_task","124","182451.0","142","1024"
"87","87","1280","1280","#3d3846","xpyriment","legacy","legacy","i","1","undefined","1","q","undefined","142","142","0","0","0","142","0","142","142","142","0","Mon Dec 15 19:47:19 2025","The main experiment item","False","stroop_task.osexp","C:\Users\jobay\Downloads","False","mono","False","25","40","80","no","white","no","yes","768","legacy","142","142","G:/class task/subject-1.csv","xpyriment","2","1","Neonatal Nightingale","4.1.6","0","q","NA","space","q","731.0","NA","1423","731","11475","space","2","legacy","1024","2","48000","-16","experiment","1","odd","335994","335290","14623","NA","1716","335492","13200","335994","336727","335285","1721","STROOP_task","125","183182.0","143","1024"
