"acc","accuracy","average_response_time","avg_rt","background","canvas_backend","clock_backend","color_backend","condition","correct","correct_intructions","correct_key_response","correct_resp","correct_welcome_message","count_Number","count_blank","count_block_loop","count_end_message","count_experiment","count_fixation","count_intructions","count_key_response","count_logger","count_trial_sequence","count_welcome_message","datetime","description","disable_garbage_collection","experiment_file","experiment_path","font_bold","font_family","font_italic","font_size","font_size_left","font_size_right","font_underline","foreground","form_clicks","fullscreen","height","keyboard_backend","live_row","live_row_block_loop","logfile","mouse_backend","number_left","number_right","opensesame_codename","opensesame_version","repeat_cycle","response","response_end_message","response_intructions","response_key_response","response_time","response_time_end_message","response_time_intructions","response_time_key_response","response_time_welcome_message","response_welcome_message","round_decimals","sampler_backend","sound_buf_size","sound_channels","sound_freq","sound_sample_size","start","subject_nr","subject_parity","time_Number","time_blank","time_block_loop","time_end_message","time_experiment","time_fixation","time_intructions","time_key_response","time_logger","time_trial_sequence","time_welcome_message","title","total_correct","total_response_time","total_responses","width"
"100","100","12430","12430","#3d3846","xpyriment","legacy","legacy","i","1","undefined","1","q","undefined","0","0","0","0","0","0","0","0","0","0","0","Mon Dec 15 20:13:16 2025","The main experiment item","False","stroop_task.osexp","C:\Users\jobay\Downloads","False","mono","False","25","40","80","no","white","no","yes","768","legacy","0","0","G:\class task\subject-3.csv","xpyriment","8","3","Neonatal Nightingale","4.1.6","0","q","NA","space","q","12430.0","NA","29955","12430","17021","space","2","legacy","1024","2","48000","-16","experiment","3","odd","49012","48308","48035","NA","1051","48510","18079","49012","61442","48303","1055","STROOP_task","1","12430.0","1","1024"
"100","100","6741","6741","#3d3846","xpyriment","legacy","legacy","n","1","undefined","1","q","undefined","1","1","0","0","0","1","0","1","1","1","0","Mon Dec 15 20:13:16 2025","The main experiment item","False","stroop_task.osexp","C:\Users\jobay\Downloads","False","mono","False","25","60","60","no","white","no","yes","768","legacy","1","1","G:\class task\subject-3.csv","xpyriment","7","2","Neonatal Nightingale","4.1.6","0","q","NA","space","q","1052.0","NA","29955","1052","17021","space","2","legacy","1024","2","48000","-16","experiment","3","odd","62733","62028","48035","NA","1051","62231","18079","62733","63786","62024","1055","STROOP_task","2","13482.0","2","1024"
"100","100","4678","4678","#3d3846","xpyriment","legacy","legacy","c","1","undefined","1","q","undefined","2","2","0","0","0","2","0","2","2","2","0","Mon Dec 15 20:13:16 2025","The main experiment item","False","stroop_task.osexp","C:\Users\jobay\Downloads","False","mono","False","25","80","40","no","white","no","yes","768","legacy","2","2","G:\class task\subject-3.csv","xpyriment","7","2","Neonatal Nightingale","4.1.6","0","q","NA","space","q","554.0","NA","29955","554","17021","space","2","legacy","1024","2","48000","-16","experiment","3","odd","64774","64069","48035","NA","1051","64272","18079","64774","65328","64064","1055","STROOP_task","3","14036.0","3","1024"
"75","75","3584","3584","#3d3846","xpyriment","legacy","legacy","i","0","undefined","0","p","undefined","3","3","0","0","0","3","0","3","3","3","0","Mon Dec 15 20:13:16 2025","The main experiment item","False","stroop_task.osexp","C:\Users\jobay\Downloads","False","mono","False","25","80","40","no","white","no","yes","768","legacy","3","3","G:\class task\subject-3.csv","xpyriment","8","9","Neonatal Nightingale","4.1.6","0","q","NA","space","q","301.0","NA","29955","301","17021","space","2","legacy","1024","2","48000","-16","experiment","3","odd","66338","65633","48035","NA","1051","65836","18079","66338","66640","65629","1055","STROOP_task","3","14337.0","4","1024"
"80","80","2936","2936","#3d3846","xpyriment","legacy","legacy","n","1","undefined","1","q","undefined","4","4","0","0","0","4","0","4","4","4","0","Mon Dec 15 20:13:16 2025","The main experiment item","False","stroop_task.osexp","C:\Users\jobay\Downloads","False","mono","False","25","60","60","no","white","no","yes","768","legacy","4","4","G:\class task\subject-3.csv","xpyriment","8","3","Neonatal Nightingale","4.1.6","0","q","NA","space","q","347.0","NA","29955","347","17021","space","2","legacy","1024","2","48000","-16","experiment","3","odd","67654","66949","48035","NA","1051","67152","18079","67654","68001","66944","1055","STROOP_task","4","14684.0","5","1024"
"83","83","2509","2509","#3d3846","xpyriment","legacy","legacy","c","1","undefined","1","q","undefined","5","5","0","0","0","5","0","5","5","5","0","Mon Dec 15 20:13:16 2025","The main experiment item","False","stroop_task.osexp","C:\Users\jobay\Downloads","False","mono","False","25","80","40","no","white","no","yes","768","legacy","5","5","G:\class task\subject-3.csv","xpyriment","9","4","Neonatal Nightingale","4.1.6","0","q","NA","space","q","372.0","NA","29955","372","17021","space","2","legacy","1024","2","48000","-16","experiment","3","odd","68970","68265","48035","NA","1051","68468","18079","68970","69342","68261","1055","STROOP_task","5","15056.0","6","1024"
"71","71","2244","2244","#3d3846","xpyriment","legacy","legacy","i","0","undefined","0","p","undefined","6","6","0","0","0","6","0","6","6","6","0","Mon Dec 15 20:13:16 2025","The main experiment item","False","stroop_task.osexp","C:\Users\jobay\Downloads","False","mono","False","25","80","40","no","white","no","yes","768","legacy","6","6","G:\class task\subject-3.csv","xpyriment","1","2","Neonatal Nightingale","4.1.6","0","q","NA","space","q","654.0","NA","29955","654","17021","space","2","legacy","1024","2","48000","-16","experiment","3","odd","70306","69602","48035","NA","1051","69804","18079","70306","70960","69597","1055","STROOP_task","5","15710.0","7","1024"
"75","75","2031","2031","#3d3846","xpyriment","legacy","legacy","c","1","undefined","1","p","undefined","7","7","0","0","0","7","0","7","7","7","0","Mon Dec 15 20:13:16 2025","The main experiment item","False","stroop_task.osexp","C:\Users\jobay\Downloads","False","mono","False","25","40","80","no","white","no","yes","768","legacy","7","7","G:\class task\subject-3.csv","xpyriment","4","9","Neonatal Nightingale","4.1.6","0","p","NA","space","p","545.0","NA","29955","545","17021","space","2","legacy","1024","2","48000","-16","experiment","3","odd","71937","71232","48035","NA","1051","71435","18079","71937","72483","71227","1055","STROOP_task","6","16255.0","8","1024"
"77","77","1866","1866","#3d3846","xpyriment","legacy","legacy","n","1","undefined","1","q","undefined","8","8","0","0","0","8","0","8","8","8","0","Mon Dec 15 20:13:16 2025","The main experiment item","False","stroop_task.osexp","C:\Users\jobay\Downloads","False","mono","False","25","60","60","no","white","no","yes","768","legacy","8","8","G:\class task\subject-3.csv","xpyriment","6","1","Neonatal Nightingale","4.1.6","0","q","NA","space","q","541.0","NA","29955","541","17021","space","2","legacy","1024","2","48000","-16","experiment","3","odd","73414","72710","48035","NA","1051","72912","18079","73414","73956","72706","1055","STROOP_task","7","16796.0","9","1024"
"70","70","1721","1721","#3d3846","xpyriment","legacy","legacy","i","0","undefined","0","q","undefined","9","9","0","0","0","9","0","9","9","9","0","Mon Dec 15 20:13:16 2025","The main experiment item","False","stroop_task.osexp","C:\Users\jobay\Downloads","False","mono","False","25","40","80","no","white","no","yes","768","legacy","9","9","G:\class task\subject-3.csv","xpyriment","6","1","Neonatal Nightingale","4.1.6","0","p","NA","space","p","421.0","NA","29955","421","17021","space","2","legacy","1024","2","48000","-16","experiment","3","odd","74944","74239","48035","NA","1051","74441","18079","74944","75366","74234","1055","STROOP_task","7","17217.0","10","1024"
"72","72","1628","1628","#3d3846","xpyriment","legacy","legacy","n","1","undefined","1","p","undefined","10","10","0","0","0","10","0","10","10","10","0","Mon Dec 15 20:13:16 2025","The main experiment item","False","stroop_task.osexp","C:\Users\jobay\Downloads","False","mono","False","25","60","60","no","white","no","yes","768","legacy","10","10","G:\class task\subject-3.csv","xpyriment","1","6","Neonatal Nightingale","4.1.6","0","p","NA","space","p","693.0","NA","29955","693","17021","space","2","legacy","1024","2","48000","-16","experiment","3","odd","76364","75660","48035","NA","1051","75862","18079","76364","77058","75656","1055","STROOP_task","8","17910.0","11","1024"
"66","66","1531","1531","#3d3846","xpyriment","legacy","legacy","n","0","undefined","0","p","undefined","11","11","0","0","0","11","0","11","11","11","0","Mon Dec 15 20:13:16 2025","The main experiment item","False","stroop_task.osexp","C:\Users\jobay\Downloads","False","mono","False","25","60","60","no","white","no","yes","768","legacy","11","11","G:\class task\subject-3.csv","xpyriment","3","8","Neonatal Nightingale","4.1.6","0","q","NA","space","q","468.0","NA","29955","468","17021","space","2","legacy","1024","2","48000","-16","experiment","3","odd","78065","77360","48035","NA","1051","77563","18079","78066","78534","77355","1055","STROOP_task","8","18378.0","12","1024"
"69","69","1460","1460","#3d3846","xpyriment","legacy","legacy","n","1","undefined","1","p","undefined","12","12","0","0","0","12","0","12","12","12","0","Mon Dec 15 20:13:16 2025","The main experiment item","False","stroop_task.osexp","C:\Users\jobay\Downloads","False","mono","False","25","60","60","no","white","no","yes","768","legacy","12","12","G:\class task\subject-3.csv","xpyriment","3","4","Neonatal Nightingale","4.1.6","0","p","NA","space","p","614.0","NA","29955","614","17021","space","2","legacy","1024","2","48000","-16","experiment","3","odd","79521","78816","48035","NA","1051","79019","18079","79521","80135","78812","1055","STROOP_task","9","18992.0","13","1024"
"71","71","1406","1406","#3d3846","xpyriment","legacy","legacy","c","1","undefined","1","q","undefined","13","13","0","0","0","13","0","13","13","13","0","Mon Dec 15 20:13:16 2025","The main experiment item","False","stroop_task.osexp","C:\Users\jobay\Downloads","False","mono","False","25","80","40","no","white","no","yes","768","legacy","13","13","G:\class task\subject-3.csv","xpyriment","9","4","Neonatal Nightingale","4.1.6","0","q","NA","space","q","698.0","NA","29955","698","17021","space","2","legacy","1024","2","48000","-16","experiment","3","odd","81134","80429","48035","NA","1051","80632","18079","81134","81833","80425","1055","STROOP_task","10","19690.0","14","1024"
"73","73","1357","1357","#3d3846","xpyriment","legacy","legacy","n","1","undefined","1","p","undefined","14","14","0","0","0","14","0","14","14","14","0","Mon Dec 15 20:13:16 2025","The main experiment item","False","stroop_task.osexp","C:\Users\jobay\Downloads","False","mono","False","25","60","60","no","white","no","yes","768","legacy","14","14","G:\class task\subject-3.csv","xpyriment","3","8","Neonatal Nightingale","4.1.6","0","p","NA","space","p","674.0","NA","29955","674","17021","space","2","legacy","1024","2","48000","-16","experiment","3","odd","82826","82120","48035","NA","1051","82324","18079","82826","83501","82115","1055","STROOP_task","11","20364.0","15","1024"
"68","68","1333","1333","#3d3846","xpyriment","legacy","legacy","i","0","undefined","0","p","undefined","15","15","0","0","0","15","0","15","15","15","0","Mon Dec 15 20:13:16 2025","The main experiment item","False","stroop_task.osexp","C:\Users\jobay\Downloads","False","mono","False","25","80","40","no","white","no","yes","768","legacy","15","15","G:\class task\subject-3.csv","xpyriment","1","6","Neonatal Nightingale","4.1.6","0","q","NA","space","q","971.0","NA","29955","971","17021","space","2","legacy","1024","2","48000","-16","experiment","3","odd","84504","83800","48035","NA","1051","84002","18079","84504","85476","83796","1055","STROOP_task","11","21335.0","16","1024"
"70","70","1324","1324","#3d3846","xpyriment","legacy","legacy","c","1","undefined","1","q","undefined","16","16","0","0","0","16","0","16","16","16","0","Mon Dec 15 20:13:16 2025","The main experiment item","False","stroop_task.osexp","C:\Users\jobay\Downloads","False","mono","False","25","80","40","no","white","no","yes","768","legacy","16","16","G:\class task\subject-3.csv","xpyriment","8","3","Neonatal Nightingale","4.1.6","0","q","NA","space","q","1173.0","NA","29955","1173","17021","space","2","legacy","1024","2","48000","-16","experiment","3","odd","86472","85768","48035","NA","1051","85970","18079","86472","87645","85763","1055","STROOP_task","12","22508.0","17","1024"
"66","66","1285","1285","#3d3846","xpyriment","legacy","legacy","i","0","undefined","0","p","undefined","17","17","0","0","0","17","0","17","17","17","0","Mon Dec 15 20:13:16 2025","The main experiment item","False","stroop_task.osexp","C:\Users\jobay\Downloads","False","mono","False","25","80","40","no","white","no","yes","768","legacy","17","17","G:\class task\subject-3.csv","xpyriment","4","9","Neonatal Nightingale","4.1.6","0","q","NA","space","q","630.0","NA","29955","630","17021","space","2","legacy","1024","2","48000","-16","experiment","3","odd","88639","87934","48035","NA","1051","88137","18079","88639","89269","87930","1055","STROOP_task","12","23138.0","18","1024"
"63","63","1251","1251","#3d3846","xpyriment","legacy","legacy","i","0","undefined","0","p","undefined","18","18","0","0","0","18","0","18","18","18","0","Mon Dec 15 20:13:16 2025","The main experiment item","False","stroop_task.osexp","C:\Users\jobay\Downloads","False","mono","False","25","80","40","no","white","no","yes","768","legacy","18","18","G:\class task\subject-3.csv","xpyriment","3","4","Neonatal Nightingale","4.1.6","0","q","NA","space","q","635.0","NA","29955","635","17021","space","2","legacy","1024","2","48000","-16","experiment","3","odd","90271","89565","48035","NA","1051","89768","18079","90271","90906","89561","1055","STROOP_task","12","23773.0","19","1024"
"65","65","1210","1210","#3d3846","xpyriment","legacy","legacy","c","1","undefined","1","q","undefined","19","19","0","0","0","19","0","19","19","19","0","Mon Dec 15 20:13:16 2025","The main experiment item","False","stroop_task.osexp","C:\Users\jobay\Downloads","False","mono","False","25","80","40","no","white","no","yes","768","legacy","19","19","G:\class task\subject-3.csv","xpyriment","7","2","Neonatal Nightingale","4.1.6","0","q","NA","space","q","434.0","NA","29955","434","17021","space","2","legacy","1024","2","48000","-16","experiment","3","odd","91950","91244","48035","NA","1051","91447","18079","91950","92384","91240","1055","STROOP_task","13","24207.0","20","1024"
"66","66","1175","1175","#3d3846","xpyriment","legacy","legacy","n","1","undefined","1","q","undefined","20","20","0","0","0","20","0","20","20","20","0","Mon Dec 15 20:13:16 2025","The main experiment item","False","stroop_task.osexp","C:\Users\jobay\Downloads","False","mono","False","25","60","60","no","white","no","yes","768","legacy","20","20","G:\class task\subject-3.csv","xpyriment","2","1","Neonatal Nightingale","4.1.6","0","q","NA","space","q","469.0","NA","29955","469","17021","space","2","legacy","1024","2","48000","-16","experiment","3","odd","93355","92650","48035","NA","1051","92853","18079","93355","93824","92646","1055","STROOP_task","14","24676.0","21","1024"
"68","68","1153","1153","#3d3846","xpyriment","legacy","legacy","n","1","undefined","1","p","undefined","21","21","0","0","0","21","0","21","21","21","0","Mon Dec 15 20:13:16 2025","The main experiment item","False","stroop_task.osexp","C:\Users\jobay\Downloads","False","mono","False","25","60","60","no","white","no","yes","768","legacy","21","21","G:\class task\subject-3.csv","xpyriment","8","9","Neonatal Nightingale","4.1.6","0","p","NA","space","p","698.0","NA","29955","698","17021","space","2","legacy","1024","2","48000","-16","experiment","3","odd","94779","94074","48035","NA","1051","94277","18079","94779","95477","94069","1055","STROOP_task","15","25374.0","22","1024"
"69","69","1132","1132","#3d3846","xpyriment","legacy","legacy","n","1","undefined","1","p","undefined","22","22","0","0","0","22","0","22","22","22","0","Mon Dec 15 20:13:16 2025","The main experiment item","False","stroop_task.osexp","C:\Users\jobay\Downloads","False","mono","False","25","60","60","no","white","no","yes","768","legacy","22","22","G:\class task\subject-3.csv","xpyriment","8","9","Neonatal Nightingale","4.1.6","0","p","NA","space","p","684.0","NA","29955","684","17021","space","2","legacy","1024","2","48000","-16","experiment","3","odd","96454","95750","48035","NA","1051","95952","18079","96454","97139","95745","1055","STROOP_task","16","26058.0","23","1024"
"66","66","1121","1121","#3d3846","xpyriment","legacy","legacy","i","0","undefined","0","q","undefined","23","23","0","0","0","23","0","23","23","23","0","Mon Dec 15 20:13:16 2025","The main experiment item","False","stroop_task.osexp","C:\Users\jobay\Downloads","False","mono","False","25","40","80","no","white","no","yes","768","legacy","23","23","G:\class task\subject-3.csv","xpyriment","7","2","Neonatal Nightingale","4.1.6","0","p","NA","space","p","849.0","NA","29955","849","17021","space","2","legacy","1024","2","48000","-16","experiment","3","odd","98111","97406","48035","NA","1051","97608","18079","98111","98961","97402","1055","STROOP_task","16","26907.0","24","1024"
"64","64","1152","1152","#3d3846","xpyriment","legacy","legacy","n","0","undefined","0","q","undefined","24","24","0","0","0","24","0","24","24","24","0","Mon Dec 15 20:13:16 2025","The main experiment item","False","stroop_task.osexp","C:\Users\jobay\Downloads","False","mono","False","25","60","60","no","white","no","yes","768","legacy","24","24","G:\class task\subject-3.csv","xpyriment","7","6","Neonatal Nightingale","4.1.6","0","p","NA","space","p","1911.0","NA","29955","1911","17021","space","2","legacy","1024","2","48000","-16","experiment","3","odd","99934","99229","48035","NA","1051","99432","18079","99934","101845","99225","1055","STROOP_task","16","28818.0","25","1024"
"65","65","1129","1129","#3d3846","xpyriment","legacy","legacy","c","1","undefined","1","q","undefined","25","25","0","0","0","25","0","25","25","25","0","Mon Dec 15 20:13:16 2025","The main experiment item","False","stroop_task.osexp","C:\Users\jobay\Downloads","False","mono","False","25","80","40","no","white","no","yes","768","legacy","25","25","G:\class task\subject-3.csv","xpyriment","6","1","Neonatal Nightingale","4.1.6","0","q","NA","space","q","550.0","NA","29955","550","17021","space","2","legacy","1024","2","48000","-16","experiment","3","odd","102818","102114","48035","NA","1051","102316","18079","102818","103369","102110","1055","STROOP_task","17","29368.0","26","1024"
"66","66","1104","1104","#3d3846","xpyriment","legacy","legacy","c","1","undefined","1","q","undefined","26","26","0","0","0","26","0","26","26","26","0","Mon Dec 15 20:13:16 2025","The main experiment item","False","stroop_task.osexp","C:\Users\jobay\Downloads","False","mono","False","25","80","40","no","white","no","yes","768","legacy","26","26","G:\class task\subject-3.csv","xpyriment","9","8","Neonatal Nightingale","4.1.6","0","q","NA","space","q","464.0","NA","29955","464","17021","space","2","legacy","1024","2","48000","-16","experiment","3","odd","104283","103574","48035","NA","1051","103781","18079","104283","104748","103570","1055","STROOP_task","18","29832.0","27","1024"
"64","64","1098","1098","#3d3846","xpyriment","legacy","legacy","n","0","undefined","0","q","undefined","27","27","0","0","0","27","0","27","27","27","0","Mon Dec 15 20:13:16 2025","The main experiment item","False","stroop_task.osexp","C:\Users\jobay\Downloads","False","mono","False","25","60","60","no","white","no","yes","768","legacy","27","27","G:\class task\subject-3.csv","xpyriment","4","3","Neonatal Nightingale","4.1.6","0","p","NA","space","p","937.0","NA","29955","937","17021","space","2","legacy","1024","2","48000","-16","experiment","3","odd","105707","105002","48035","NA","1051","105205","18079","105707","106645","104998","1055","STROOP_task","18","30769.0","28","1024"
"65","65","1081","1081","#3d3846","xpyriment","legacy","legacy","n","1","undefined","1","p","undefined","28","28","0","0","0","28","0","28","28","28","0","Mon Dec 15 20:13:16 2025","The main experiment item","False","stroop_task.osexp","C:\Users\jobay\Downloads","False","mono","False","25","60","60","no","white","no","yes","768","legacy","28","28","G:\class task\subject-3.csv","xpyriment","1","6","Neonatal Nightingale","4.1.6","0","p","NA","space","p","608.0","NA","29955","608","17021","space","2","legacy","1024","2","48000","-16","experiment","3","odd","107616","106911","48035","NA","1051","107114","18079","107616","108224","106906","1055","STROOP_task","19","31377.0","29","1024"
"63","63","1069","1069","#3d3846","xpyriment","legacy","legacy","i","0","undefined","0","q","undefined","29","29","0","0","0","29","0","29","29","29","0","Mon Dec 15 20:13:16 2025","The main experiment item","False","stroop_task.osexp","C:\Users\jobay\Downloads","False","mono","False","25","40","80","no","white","no","yes","768","legacy","29","29","G:\class task\subject-3.csv","xpyriment","9","4","Neonatal Nightingale","4.1.6","0","p","NA","space","p","712.0","NA","29955","712","17021","space","2","legacy","1024","2","48000","-16","experiment","3","odd","109193","108489","48035","NA","1051","108691","18079","109193","109905","108485","1055","STROOP_task","19","32089.0","30","1024"
"61","61","1053","1053","#3d3846","xpyriment","legacy","legacy","i","0","undefined","0","q","undefined","30","30","0","0","0","30","0","30","30","30","0","Mon Dec 15 20:13:16 2025","The main experiment item","False","stroop_task.osexp","C:\Users\jobay\Downloads","False","mono","False","25","40","80","no","white","no","yes","768","legacy","30","30","G:\class task\subject-3.csv","xpyriment","7","6","Neonatal Nightingale","4.1.6","0","p","NA","space","p","561.0","NA","29955","561","17021","space","2","legacy","1024","2","48000","-16","experiment","3","odd","110904","110199","48035","NA","1051","110402","18079","110904","111466","110194","1055","STROOP_task","19","32650.0","31","1024"
"62","62","1044","1044","#3d3846","xpyriment","legacy","legacy","c","1","undefined","1","q","undefined","31","31","0","0","0","31","0","31","31","31","0","Mon Dec 15 20:13:16 2025","The main experiment item","False","stroop_task.osexp","C:\Users\jobay\Downloads","False","mono","False","25","80","40","no","white","no","yes","768","legacy","31","31","G:\class task\subject-3.csv","xpyriment","9","4","Neonatal Nightingale","4.1.6","0","q","NA","space","q","787.0","NA","29955","787","17021","space","2","legacy","1024","2","48000","-16","experiment","3","odd","112444","111738","48035","NA","1051","111941","18079","112444","113232","111734","1055","STROOP_task","20","33437.0","32","1024"
"60","60","1031","1031","#3d3846","xpyriment","legacy","legacy","n","0","undefined","0","q","undefined","32","32","0","0","0","32","0","32","32","32","0","Mon Dec 15 20:13:16 2025","The main experiment item","False","stroop_task.osexp","C:\Users\jobay\Downloads","False","mono","False","25","60","60","no","white","no","yes","768","legacy","32","32","G:\class task\subject-3.csv","xpyriment","9","8","Neonatal Nightingale","4.1.6","0","p","NA","space","p","612.0","NA","29955","612","17021","space","2","legacy","1024","2","48000","-16","experiment","3","odd","114232","113527","48035","NA","1051","113729","18079","114232","114844","113523","1055","STROOP_task","20","34049.0","33","1024"
"61","61","1020","1020","#3d3846","xpyriment","legacy","legacy","n","1","undefined","1","p","undefined","33","33","0","0","0","33","0","33","33","33","0","Mon Dec 15 20:13:16 2025","The main experiment item","False","stroop_task.osexp","C:\Users\jobay\Downloads","False","mono","False","25","60","60","no","white","no","yes","768","legacy","33","33","G:\class task\subject-3.csv","xpyriment","8","9","Neonatal Nightingale","4.1.6","0","p","NA","space","p","664.0","NA","29955","664","17021","space","2","legacy","1024","2","48000","-16","experiment","3","odd","115843","115137","48035","NA","1051","115340","18079","115843","116507","115133","1055","STROOP_task","21","34713.0","34","1024"
"62","62","1008","1008","#3d3846","xpyriment","legacy","legacy","c","1","undefined","1","q","undefined","34","34","0","0","0","34","0","34","34","34","0","Mon Dec 15 20:13:16 2025","The main experiment item","False","stroop_task.osexp","C:\Users\jobay\Downloads","False","mono","False","25","80","40","no","white","no","yes","768","legacy","34","34","G:\class task\subject-3.csv","xpyriment","8","3","Neonatal Nightingale","4.1.6","0","q","NA","space","q","598.0","NA","29955","598","17021","space","2","legacy","1024","2","48000","-16","experiment","3","odd","117521","116815","48035","NA","1051","117018","18079","117521","118120","116811","1055","STROOP_task","22","35311.0","35","1024"
"61","61","1017","1017","#3d3846","xpyriment","legacy","legacy","n","0","undefined","0","q","undefined","35","35","0","0","0","35","0","35","35","35","0","Mon Dec 15 20:13:16 2025","The main experiment item","False","stroop_task.osexp","C:\Users\jobay\Downloads","False","mono","False","25","60","60","no","white","no","yes","768","legacy","35","35","G:\class task\subject-3.csv","xpyriment","2","1","Neonatal Nightingale","4.1.6","0","p","NA","space","p","1311.0","NA","29955","1311","17021","space","2","legacy","1024","2","48000","-16","experiment","3","odd","119140","118435","48035","NA","1051","118638","18079","119140","120451","118430","1055","STROOP_task","22","36622.0","36","1024"
"59","59","1018","1018","#3d3846","xpyriment","legacy","legacy","i","0","undefined","0","q","undefined","36","36","0","0","0","36","0","36","36","36","0","Mon Dec 15 20:13:16 2025","The main experiment item","False","stroop_task.osexp","C:\Users\jobay\Downloads","False","mono","False","25","40","80","no","white","no","yes","768","legacy","36","36","G:\class task\subject-3.csv","xpyriment","7","6","Neonatal Nightingale","4.1.6","0","p","NA","space","p","1059.0","NA","29955","1059","17021","space","2","legacy","1024","2","48000","-16","experiment","3","odd","121420","120716","48035","NA","1051","120918","18079","121420","122480","120712","1055","STROOP_task","22","37681.0","37","1024"
"60","60","1008","1008","#3d3846","xpyriment","legacy","legacy","n","1","undefined","1","p","undefined","37","37","0","0","0","37","0","37","37","37","0","Mon Dec 15 20:13:16 2025","The main experiment item","False","stroop_task.osexp","C:\Users\jobay\Downloads","False","mono","False","25","60","60","no","white","no","yes","768","legacy","37","37","G:\class task\subject-3.csv","xpyriment","4","9","Neonatal Nightingale","4.1.6","0","p","NA","space","p","633.0","NA","29955","633","17021","space","2","legacy","1024","2","48000","-16","experiment","3","odd","123458","122753","48035","NA","1051","122956","18079","123458","124091","122748","1055","STROOP_task","23","38314.0","38","1024"
"61","61","995","995","#3d3846","xpyriment","legacy","legacy","c","1","undefined","1","p","undefined","38","38","0","0","0","38","0","38","38","38","0","Mon Dec 15 20:13:16 2025","The main experiment item","False","stroop_task.osexp","C:\Users\jobay\Downloads","False","mono","False","25","40","80","no","white","no","yes","768","legacy","38","38","G:\class task\subject-3.csv","xpyriment","2","7","Neonatal Nightingale","4.1.6","0","p","NA","space","p","522.0","NA","29955","522","17021","space","2","legacy","1024","2","48000","-16","experiment","3","odd","125059","124354","48035","NA","1051","124557","18079","125059","125582","124350","1055","STROOP_task","24","38836.0","39","1024"
"62","62","988","988","#3d3846","xpyriment","legacy","legacy","n","1","undefined","1","p","undefined","39","39","0","0","0","39","0","39","39","39","0","Mon Dec 15 20:13:16 2025","The main experiment item","False","stroop_task.osexp","C:\Users\jobay\Downloads","False","mono","False","25","60","60","no","white","no","yes","768","legacy","39","39","G:\class task\subject-3.csv","xpyriment","4","9","Neonatal Nightingale","4.1.6","0","p","NA","space","p","719.0","NA","29955","719","17021","space","2","legacy","1024","2","48000","-16","experiment","3","odd","126546","125841","48035","NA","1051","126044","18079","126546","127265","125836","1055","STROOP_task","25","39555.0","40","1024"
"63","63","981","981","#3d3846","xpyriment","legacy","legacy","n","1","undefined","1","q","undefined","40","40","0","0","0","40","0","40","40","40","0","Mon Dec 15 20:13:16 2025","The main experiment item","False","stroop_task.osexp","C:\Users\jobay\Downloads","False","mono","False","25","60","60","no","white","no","yes","768","legacy","40","40","G:\class task\subject-3.csv","xpyriment","2","1","Neonatal Nightingale","4.1.6","0","q","NA","space","q","693.0","NA","29955","693","17021","space","2","legacy","1024","2","48000","-16","experiment","3","odd","128238","127531","48035","NA","1051","127736","18079","128238","128931","127527","1055","STROOP_task","26","40248.0","41","1024"
"64","64","970","970","#3d3846","xpyriment","legacy","legacy","c","1","undefined","1","p","undefined","41","41","0","0","0","41","0","41","41","41","0","Mon Dec 15 20:13:16 2025","The main experiment item","False","stroop_task.osexp","C:\Users\jobay\Downloads","False","mono","False","25","40","80","no","white","no","yes","768","legacy","41","41","G:\class task\subject-3.csv","xpyriment","2","7","Neonatal Nightingale","4.1.6","0","p","NA","space","p","515.0","NA","29955","515","17021","space","2","legacy","1024","2","48000","-16","experiment","3","odd","129900","129194","48035","NA","1051","129397","18079","129900","130416","129190","1055","STROOP_task","27","40763.0","42","1024"
"62","62","958","958","#3d3846","xpyriment","legacy","legacy","i","0","undefined","0","q","undefined","42","42","0","0","0","42","0","42","42","42","0","Mon Dec 15 20:13:16 2025","The main experiment item","False","stroop_task.osexp","C:\Users\jobay\Downloads","False","mono","False","25","40","80","no","white","no","yes","768","legacy","42","42","G:\class task\subject-3.csv","xpyriment","4","3","Neonatal Nightingale","4.1.6","0","p","NA","space","p","432.0","NA","29955","432","17021","space","2","legacy","1024","2","48000","-16","experiment","3","odd","131375","130669","48035","NA","1051","130872","18079","131375","131808","130664","1055","STROOP_task","27","41195.0","43","1024"
"63","63","958","958","#3d3846","xpyriment","legacy","legacy","n","1","undefined","1","q","undefined","43","43","0","0","0","43","0","43","43","43","0","Mon Dec 15 20:13:16 2025","The main experiment item","False","stroop_task.osexp","C:\Users\jobay\Downloads","False","mono","False","25","60","60","no","white","no","yes","768","legacy","43","43","G:\class task\subject-3.csv","xpyriment","9","4","Neonatal Nightingale","4.1.6","0","q","NA","space","q","960.0","NA","29955","960","17021","space","2","legacy","1024","2","48000","-16","experiment","3","odd","132770","132065","48035","NA","1051","132268","18079","132770","133730","132061","1055","STROOP_task","28","42155.0","44","1024"
"64","64","949","949","#3d3846","xpyriment","legacy","legacy","n","1","undefined","1","q","undefined","44","44","0","0","0","44","0","44","44","44","0","Mon Dec 15 20:13:16 2025","The main experiment item","False","stroop_task.osexp","C:\Users\jobay\Downloads","False","mono","False","25","60","60","no","white","no","yes","768","legacy","44","44","G:\class task\subject-3.csv","xpyriment","2","1","Neonatal Nightingale","4.1.6","0","q","NA","space","q","557.0","NA","29955","557","17021","space","2","legacy","1024","2","48000","-16","experiment","3","odd","134701","133996","48035","NA","1051","134199","18079","134701","135259","133992","1055","STROOP_task","29","42712.0","45","1024"
"63","63","937","937","#3d3846","xpyriment","legacy","legacy","i","0","undefined","0","q","undefined","45","45","0","0","0","45","0","45","45","45","0","Mon Dec 15 20:13:16 2025","The main experiment item","False","stroop_task.osexp","C:\Users\jobay\Downloads","False","mono","False","25","40","80","no","white","no","yes","768","legacy","45","45","G:\class task\subject-3.csv","xpyriment","7","6","Neonatal Nightingale","4.1.6","0","p","NA","space","p","419.0","NA","29955","419","17021","space","2","legacy","1024","2","48000","-16","experiment","3","odd","136245","135540","48035","NA","1051","135743","18079","136245","136665","135536","1055","STROOP_task","29","43131.0","46","1024"
"63","63","928","928","#3d3846","xpyriment","legacy","legacy","c","1","undefined","1","p","undefined","46","46","0","0","0","46","0","46","46","46","0","Mon Dec 15 20:13:16 2025","The main experiment item","False","stroop_task.osexp","C:\Users\jobay\Downloads","False","mono","False","25","40","80","no","white","no","yes","768","legacy","46","46","G:\class task\subject-3.csv","xpyriment","1","2","Neonatal Nightingale","4.1.6","0","p","NA","space","p","486.0","NA","29955","486","17021","space","2","legacy","1024","2","48000","-16","experiment","3","odd","137652","136946","48035","NA","1051","137149","18079","137652","138139","136941","1055","STROOP_task","30","43617.0","47","1024"
"64","64","923","923","#3d3846","xpyriment","legacy","legacy","c","1","undefined","1","p","undefined","47","47","0","0","0","47","0","47","47","47","0","Mon Dec 15 20:13:16 2025","The main experiment item","False","stroop_task.osexp","C:\Users\jobay\Downloads","False","mono","False","25","40","80","no","white","no","yes","768","legacy","47","47","G:\class task\subject-3.csv","xpyriment","2","7","Neonatal Nightingale","4.1.6","0","p","NA","space","p","734.0","NA","29955","734","17021","space","2","legacy","1024","2","48000","-16","experiment","3","odd","139150","138445","48035","NA","1051","138648","18079","139150","139884","138440","1055","STROOP_task","31","44351.0","48","1024"
"63","63","921","921","#3d3846","xpyriment","legacy","legacy","i","0","undefined","0","p","undefined","48","48","0","0","0","48","0","48","48","48","0","Mon Dec 15 20:13:16 2025","The main experiment item","False","stroop_task.osexp","C:\Users\jobay\Downloads","False","mono","False","25","80","40","no","white","no","yes","768","legacy","48","48","G:\class task\subject-3.csv","xpyriment","3","8","Neonatal Nightingale","4.1.6","0","q","NA","space","q","787.0","NA","29955","787","17021","space","2","legacy","1024","2","48000","-16","experiment","3","odd","140820","140116","48035","NA","1051","140318","18079","140820","141608","140112","1055","STROOP_task","31","45138.0","49","1024"
"62","62","958","958","#3d3846","xpyriment","legacy","legacy","i","0","undefined","0","p","undefined","49","49","0","0","0","49","0","49","49","49","0","Mon Dec 15 20:13:16 2025","The main experiment item","False","stroop_task.osexp","C:\Users\jobay\Downloads","False","mono","False","25","80","40","no","white","no","yes","768","legacy","49","49","G:\class task\subject-3.csv","xpyriment","3","8","Neonatal Nightingale","4.1.6","0","q","NA","space","q","2771.0","NA","29955","2771","17021","space","2","legacy","1024","2","48000","-16","experiment","3","odd","142604","141899","48035","NA","1051","142102","18079","142604","145376","141895","1055","STROOP_task","31","47909.0","50","1024"
"60","60","955","955","#3d3846","xpyriment","legacy","legacy","i","0","undefined","0","p","undefined","50","50","0","0","0","50","0","50","50","50","0","Mon Dec 15 20:13:16 2025","The main experiment item","False","stroop_task.osexp","C:\Users\jobay\Downloads","False","mono","False","25","80","40","no","white","no","yes","768","legacy","50","50","G:\class task\subject-3.csv","xpyriment","2","7","Neonatal Nightingale","4.1.6","0","q","NA","space","q","812.0","NA","29955","812","17021","space","2","legacy","1024","2","48000","-16","experiment","3","odd","146376","145671","48035","NA","1051","145874","18079","146376","147188","145667","1055","STROOP_task","31","48721.0","51","1024"
"59","59","946","946","#3d3846","xpyriment","legacy","legacy","i","0","undefined","0","p","undefined","51","51","0","0","0","51","0","51","51","51","0","Mon Dec 15 20:13:16 2025","The main experiment item","False","stroop_task.osexp","C:\Users\jobay\Downloads","False","mono","False","25","80","40","no","white","no","yes","768","legacy","51","51","G:\class task\subject-3.csv","xpyriment","6","7","Neonatal Nightingale","4.1.6","0","q","NA","space","q","478.0","NA","29955","478","17021","space","2","legacy","1024","2","48000","-16","experiment","3","odd","148183","147478","48035","NA","1051","147680","18079","148183","148662","147473","1055","STROOP_task","31","49199.0","52","1024"
"60","60","941","941","#3d3846","xpyriment","legacy","legacy","c","1","undefined","1","p","undefined","52","52","0","0","0","52","0","52","52","52","0","Mon Dec 15 20:13:16 2025","The main experiment item","False","stroop_task.osexp","C:\Users\jobay\Downloads","False","mono","False","25","40","80","no","white","no","yes","768","legacy","52","52","G:\class task\subject-3.csv","xpyriment","2","7","Neonatal Nightingale","4.1.6","0","p","NA","space","p","674.0","NA","29955","674","17021","space","2","legacy","1024","2","48000","-16","experiment","3","odd","149640","148935","48035","NA","1051","149138","18079","149640","150315","148930","1055","STROOP_task","32","49873.0","53","1024"
"61","61","937","937","#3d3846","xpyriment","legacy","legacy","c","1","undefined","1","p","undefined","53","53","0","0","0","53","0","53","53","53","0","Mon Dec 15 20:13:16 2025","The main experiment item","False","stroop_task.osexp","C:\Users\jobay\Downloads","False","mono","False","25","40","80","no","white","no","yes","768","legacy","53","53","G:\class task\subject-3.csv","xpyriment","3","8","Neonatal Nightingale","4.1.6","0","p","NA","space","p","748.0","NA","29955","748","17021","space","2","legacy","1024","2","48000","-16","experiment","3","odd","151335","150630","48035","NA","1051","150833","18079","151335","152083","150625","1055","STROOP_task","33","50621.0","54","1024"
"61","61","927","927","#3d3846","xpyriment","legacy","legacy","c","1","undefined","1","p","undefined","54","54","0","0","0","54","0","54","54","54","0","Mon Dec 15 20:13:16 2025","The main experiment item","False","stroop_task.osexp","C:\Users\jobay\Downloads","False","mono","False","25","40","80","no","white","no","yes","768","legacy","54","54","G:\class task\subject-3.csv","xpyriment","3","8","Neonatal Nightingale","4.1.6","0","p","NA","space","p","414.0","NA","29955","414","17021","space","2","legacy","1024","2","48000","-16","experiment","3","odd","153048","152343","48035","NA","1051","152546","18079","153049","153464","152339","1055","STROOP_task","34","51035.0","55","1024"
"62","62","923","923","#3d3846","xpyriment","legacy","legacy","n","1","undefined","1","p","undefined","55","55","0","0","0","55","0","55","55","55","0","Mon Dec 15 20:13:16 2025","The main experiment item","False","stroop_task.osexp","C:\Users\jobay\Downloads","False","mono","False","25","60","60","no","white","no","yes","768","legacy","55","55","G:\class task\subject-3.csv","xpyriment","1","2","Neonatal Nightingale","4.1.6","0","p","NA","space","p","654.0","NA","29955","654","17021","space","2","legacy","1024","2","48000","-16","experiment","3","odd","154431","153727","48035","NA","1051","153929","18079","154431","155086","153723","1055","STROOP_task","35","51689.0","56","1024"
"61","61","925","925","#3d3846","xpyriment","legacy","legacy","i","0","undefined","0","q","undefined","56","56","0","0","0","56","0","56","56","56","0","Mon Dec 15 20:13:16 2025","The main experiment item","False","stroop_task.osexp","C:\Users\jobay\Downloads","False","mono","False","25","40","80","no","white","no","yes","768","legacy","56","56","G:\class task\subject-3.csv","xpyriment","7","2","Neonatal Nightingale","4.1.6","0","p","NA","space","p","1047.0","NA","29955","1047","17021","space","2","legacy","1024","2","48000","-16","experiment","3","odd","156050","155344","48035","NA","1051","155547","18079","156050","157098","155340","1055","STROOP_task","35","52736.0","57","1024"
"62","62","918","918","#3d3846","xpyriment","legacy","legacy","n","1","undefined","1","p","undefined","57","57","0","0","0","57","0","57","57","57","0","Mon Dec 15 20:13:16 2025","The main experiment item","False","stroop_task.osexp","C:\Users\jobay\Downloads","False","mono","False","25","60","60","no","white","no","yes","768","legacy","57","57","G:\class task\subject-3.csv","xpyriment","8","9","Neonatal Nightingale","4.1.6","0","p","NA","space","p","528.0","NA","29955","528","17021","space","2","legacy","1024","2","48000","-16","experiment","3","odd","158066","157362","48035","NA","1051","157564","18079","158066","158594","157358","1055","STROOP_task","36","53264.0","58","1024"
"61","61","910","910","#3d3846","xpyriment","legacy","legacy","i","0","undefined","0","q","undefined","58","58","0","0","0","58","0","58","58","58","0","Mon Dec 15 20:13:16 2025","The main experiment item","False","stroop_task.osexp","C:\Users\jobay\Downloads","False","mono","False","25","40","80","no","white","no","yes","768","legacy","58","58","G:\class task\subject-3.csv","xpyriment","9","8","Neonatal Nightingale","4.1.6","0","p","NA","space","p","472.0","NA","29955","472","17021","space","2","legacy","1024","2","48000","-16","experiment","3","odd","159569","158864","48035","NA","1051","159067","18079","159569","160042","158860","1055","STROOP_task","36","53736.0","59","1024"
"60","60","911","911","#3d3846","xpyriment","legacy","legacy","n","0","undefined","0","q","undefined","59","59","0","0","0","59","0","59","59","59","0","Mon Dec 15 20:13:16 2025","The main experiment item","False","stroop_task.osexp","C:\Users\jobay\Downloads","False","mono","False","25","60","60","no","white","no","yes","768","legacy","59","59","G:\class task\subject-3.csv","xpyriment","9","4","Neonatal Nightingale","4.1.6","0","p","NA","space","p","935.0","NA","29955","935","17021","space","2","legacy","1024","2","48000","-16","experiment","3","odd","161006","160297","48035","NA","1051","160504","18079","161006","161942","160293","1055","STROOP_task","36","54671.0","60","1024"
"59","59","904","904","#3d3846","xpyriment","legacy","legacy","i","0","undefined","0","q","undefined","60","60","0","0","0","60","0","60","60","60","0","Mon Dec 15 20:13:16 2025","The main experiment item","False","stroop_task.osexp","C:\Users\jobay\Downloads","False","mono","False","25","40","80","no","white","no","yes","768","legacy","60","60","G:\class task\subject-3.csv","xpyriment","2","1","Neonatal Nightingale","4.1.6","0","p","NA","space","p","495.0","NA","29955","495","17021","space","2","legacy","1024","2","48000","-16","experiment","3","odd","162898","162194","48035","NA","1051","162396","18079","162898","163393","162189","1055","STROOP_task","36","55166.0","61","1024"
"59","59","901","901","#3d3846","xpyriment","legacy","legacy","c","1","undefined","1","p","undefined","61","61","0","0","0","61","0","61","61","61","0","Mon Dec 15 20:13:16 2025","The main experiment item","False","stroop_task.osexp","C:\Users\jobay\Downloads","False","mono","False","25","40","80","no","white","no","yes","768","legacy","61","61","G:\class task\subject-3.csv","xpyriment","4","9","Neonatal Nightingale","4.1.6","0","p","NA","space","p","716.0","NA","29955","716","17021","space","2","legacy","1024","2","48000","-16","experiment","3","odd","164371","163667","48035","NA","1051","163869","18079","164371","165087","163662","1055","STROOP_task","37","55882.0","62","1024"
"58","58","895","895","#3d3846","xpyriment","legacy","legacy","i","0","undefined","0","p","undefined","62","62","0","0","0","62","0","62","62","62","0","Mon Dec 15 20:13:16 2025","The main experiment item","False","stroop_task.osexp","C:\Users\jobay\Downloads","False","mono","False","25","80","40","no","white","no","yes","768","legacy","62","62","G:\class task\subject-3.csv","xpyriment","2","7","Neonatal Nightingale","4.1.6","0","q","NA","space","q","565.0","NA","29955","565","17021","space","2","legacy","1024","2","48000","-16","experiment","3","odd","166063","165358","48035","NA","1051","165561","18079","166063","166629","165353","1055","STROOP_task","37","56447.0","63","1024"
"59","59","891","891","#3d3846","xpyriment","legacy","legacy","c","1","undefined","1","q","undefined","63","63","0","0","0","63","0","63","63","63","0","Mon Dec 15 20:13:16 2025","The main experiment item","False","stroop_task.osexp","C:\Users\jobay\Downloads","False","mono","False","25","80","40","no","white","no","yes","768","legacy","63","63","G:\class task\subject-3.csv","xpyriment","7","6","Neonatal Nightingale","4.1.6","0","q","NA","space","q","619.0","NA","29955","619","17021","space","2","legacy","1024","2","48000","-16","experiment","3","odd","167589","166884","48035","NA","1051","167086","18079","167589","168209","166880","1055","STROOP_task","38","57066.0","64","1024"
"60","60","889","889","#3d3846","xpyriment","legacy","legacy","n","1","undefined","1","p","undefined","64","64","0","0","0","64","0","64","64","64","0","Mon Dec 15 20:13:16 2025","The main experiment item","False","stroop_task.osexp","C:\Users\jobay\Downloads","False","mono","False","25","60","60","no","white","no","yes","768","legacy","64","64","G:\class task\subject-3.csv","xpyriment","3","8","Neonatal Nightingale","4.1.6","0","p","NA","space","p","721.0","NA","29955","721","17021","space","2","legacy","1024","2","48000","-16","experiment","3","odd","169193","168488","48035","NA","1051","168691","18079","169193","169914","168484","1055","STROOP_task","39","57787.0","65","1024"
"60","60","883","883","#3d3846","xpyriment","legacy","legacy","c","1","undefined","1","q","undefined","65","65","0","0","0","65","0","65","65","65","0","Mon Dec 15 20:13:16 2025","The main experiment item","False","stroop_task.osexp","C:\Users\jobay\Downloads","False","mono","False","25","80","40","no","white","no","yes","768","legacy","65","65","G:\class task\subject-3.csv","xpyriment","2","1","Neonatal Nightingale","4.1.6","0","q","NA","space","q","525.0","NA","29955","525","17021","space","2","legacy","1024","2","48000","-16","experiment","3","odd","170915","170210","48035","NA","1051","170413","18079","170915","171441","170205","1055","STROOP_task","40","58312.0","66","1024"
"59","59","877","877","#3d3846","xpyriment","legacy","legacy","i","0","undefined","0","q","undefined","66","66","0","0","0","66","0","66","66","66","0","Mon Dec 15 20:13:16 2025","The main experiment item","False","stroop_task.osexp","C:\Users\jobay\Downloads","False","mono","False","25","40","80","no","white","no","yes","768","legacy","66","66","G:\class task\subject-3.csv","xpyriment","2","1","Neonatal Nightingale","4.1.6","0","p","NA","space","p","465.0","NA","29955","465","17021","space","2","legacy","1024","2","48000","-16","experiment","3","odd","172369","171665","48035","NA","1051","171867","18079","172369","172835","171661","1055","STROOP_task","40","58777.0","67","1024"
"60","60","870","870","#3d3846","xpyriment","legacy","legacy","c","1","undefined","1","q","undefined","67","67","0","0","0","67","0","67","67","67","0","Mon Dec 15 20:13:16 2025","The main experiment item","False","stroop_task.osexp","C:\Users\jobay\Downloads","False","mono","False","25","80","40","no","white","no","yes","768","legacy","67","67","G:\class task\subject-3.csv","xpyriment","4","3","Neonatal Nightingale","4.1.6","0","q","NA","space","q","413.0","NA","29955","413","17021","space","2","legacy","1024","2","48000","-16","experiment","3","odd","173822","173117","48035","NA","1051","173320","18079","173822","174236","173113","1055","STROOP_task","41","59190.0","68","1024"
"60","60","864","864","#3d3846","xpyriment","legacy","legacy","c","1","undefined","1","p","undefined","68","68","0","0","0","68","0","68","68","68","0","Mon Dec 15 20:13:16 2025","The main experiment item","False","stroop_task.osexp","C:\Users\jobay\Downloads","False","mono","False","25","40","80","no","white","no","yes","768","legacy","68","68","G:\class task\subject-3.csv","xpyriment","1","6","Neonatal Nightingale","4.1.6","0","p","NA","space","p","436.0","NA","29955","436","17021","space","2","legacy","1024","2","48000","-16","experiment","3","odd","175222","174517","48035","NA","1051","174720","18079","175222","175659","174512","1055","STROOP_task","42","59626.0","69","1024"
"61","61","862","862","#3d3846","xpyriment","legacy","legacy","n","1","undefined","1","q","undefined","69","69","0","0","0","69","0","69","69","69","0","Mon Dec 15 20:13:16 2025","The main experiment item","False","stroop_task.osexp","C:\Users\jobay\Downloads","False","mono","False","25","60","60","no","white","no","yes","768","legacy","69","69","G:\class task\subject-3.csv","xpyriment","6","1","Neonatal Nightingale","4.1.6","0","q","NA","space","q","734.0","NA","29955","734","17021","space","2","legacy","1024","2","48000","-16","experiment","3","odd","176652","175948","48035","NA","1051","176150","18079","176652","177387","175943","1055","STROOP_task","43","60360.0","70","1024"
"61","61","857","857","#3d3846","xpyriment","legacy","legacy","c","1","undefined","1","q","undefined","70","70","0","0","0","70","0","70","70","70","0","Mon Dec 15 20:13:16 2025","The main experiment item","False","stroop_task.osexp","C:\Users\jobay\Downloads","False","mono","False","25","80","40","no","white","no","yes","768","legacy","70","70","G:\class task\subject-3.csv","xpyriment","4","3","Neonatal Nightingale","4.1.6","0","q","NA","space","q","543.0","NA","29955","543","17021","space","2","legacy","1024","2","48000","-16","experiment","3","odd","178413","177708","48035","NA","1051","177911","18079","178413","178957","177703","1055","STROOP_task","44","60903.0","71","1024"
"62","62","852","852","#3d3846","xpyriment","legacy","legacy","c","1","undefined","1","p","undefined","71","71","0","0","0","71","0","71","71","71","0","Mon Dec 15 20:13:16 2025","The main experiment item","False","stroop_task.osexp","C:\Users\jobay\Downloads","False","mono","False","25","40","80","no","white","no","yes","768","legacy","71","71","G:\class task\subject-3.csv","xpyriment","1","2","Neonatal Nightingale","4.1.6","0","p","NA","space","p","457.0","NA","29955","457","17021","space","2","legacy","1024","2","48000","-16","experiment","3","odd","179919","179214","48035","NA","1051","179417","18079","179919","180377","179210","1055","STROOP_task","45","61360.0","72","1024"
"61","61","849","849","#3d3846","xpyriment","legacy","legacy","i","0","undefined","0","p","undefined","72","72","0","0","0","72","0","72","72","72","0","Mon Dec 15 20:13:16 2025","The main experiment item","False","stroop_task.osexp","C:\Users\jobay\Downloads","False","mono","False","25","80","40","no","white","no","yes","768","legacy","72","72","G:\class task\subject-3.csv","xpyriment","4","9","Neonatal Nightingale","4.1.6","0","q","NA","space","q","635.0","NA","29955","635","17021","space","2","legacy","1024","2","48000","-16","experiment","3","odd","181347","180643","48035","NA","1051","180845","18079","181347","181983","180639","1055","STROOP_task","45","61995.0","73","1024"
"62","62","844","844","#3d3846","xpyriment","legacy","legacy","c","1","undefined","1","p","undefined","73","73","0","0","0","73","0","73","73","73","0","Mon Dec 15 20:13:16 2025","The main experiment item","False","stroop_task.osexp","C:\Users\jobay\Downloads","False","mono","False","25","40","80","no","white","no","yes","768","legacy","73","73","G:\class task\subject-3.csv","xpyriment","3","4","Neonatal Nightingale","4.1.6","0","p","NA","space","p","478.0","NA","29955","478","17021","space","2","legacy","1024","2","48000","-16","experiment","3","odd","182955","182250","48035","NA","1051","182453","18079","182955","183434","182245","1055","STROOP_task","46","62473.0","74","1024"
"62","62","838","838","#3d3846","xpyriment","legacy","legacy","c","1","undefined","1","p","undefined","74","74","0","0","0","74","0","74","74","74","0","Mon Dec 15 20:13:16 2025","The main experiment item","False","stroop_task.osexp","C:\Users\jobay\Downloads","False","mono","False","25","40","80","no","white","no","yes","768","legacy","74","74","G:\class task\subject-3.csv","xpyriment","3","4","Neonatal Nightingale","4.1.6","0","p","NA","space","p","387.0","NA","29955","387","17021","space","2","legacy","1024","2","48000","-16","experiment","3","odd","184391","183686","48035","NA","1051","183888","18079","184391","184779","183681","1055","STROOP_task","47","62860.0","75","1024"
"61","61","832","832","#3d3846","xpyriment","legacy","legacy","i","0","undefined","0","q","undefined","75","75","0","0","0","75","0","75","75","75","0","Mon Dec 15 20:13:16 2025","The main experiment item","False","stroop_task.osexp","C:\Users\jobay\Downloads","False","mono","False","25","40","80","no","white","no","yes","768","legacy","75","75","G:\class task\subject-3.csv","xpyriment","9","4","Neonatal Nightingale","4.1.6","0","p","NA","space","p","408.0","NA","29955","408","17021","space","2","legacy","1024","2","48000","-16","experiment","3","odd","185750","185045","48035","NA","1051","185247","18079","185750","186159","185041","1055","STROOP_task","47","63268.0","76","1024"
"61","61","827","827","#3d3846","xpyriment","legacy","legacy","i","0","undefined","0","q","undefined","76","76","0","0","0","76","0","76","76","76","0","Mon Dec 15 20:13:16 2025","The main experiment item","False","stroop_task.osexp","C:\Users\jobay\Downloads","False","mono","False","25","40","80","no","white","no","yes","768","legacy","76","76","G:\class task\subject-3.csv","xpyriment","7","2","Neonatal Nightingale","4.1.6","0","p","NA","space","p","437.0","NA","29955","437","17021","space","2","legacy","1024","2","48000","-16","experiment","3","odd","187133","186429","48035","NA","1051","186631","18079","187133","187571","186425","1055","STROOP_task","47","63705.0","77","1024"
"60","60","826","826","#3d3846","xpyriment","legacy","legacy","n","0","undefined","0","q","undefined","77","77","0","0","0","77","0","77","77","77","0","Mon Dec 15 20:13:16 2025","The main experiment item","False","stroop_task.osexp","C:\Users\jobay\Downloads","False","mono","False","25","60","60","no","white","no","yes","768","legacy","77","77","G:\class task\subject-3.csv","xpyriment","9","8","Neonatal Nightingale","4.1.6","0","p","NA","space","p","787.0","NA","29955","787","17021","space","2","legacy","1024","2","48000","-16","experiment","3","odd","188525","187819","48035","NA","1051","188023","18079","188525","189313","187815","1055","STROOP_task","47","64492.0","78","1024"
"59","59","822","822","#3d3846","xpyriment","legacy","legacy","i","0","undefined","0","q","undefined","78","78","0","0","0","78","0","78","78","78","0","Mon Dec 15 20:13:16 2025","The main experiment item","False","stroop_task.osexp","C:\Users\jobay\Downloads","False","mono","False","25","40","80","no","white","no","yes","768","legacy","78","78","G:\class task\subject-3.csv","xpyriment","4","3","Neonatal Nightingale","4.1.6","0","p","NA","space","p","490.0","NA","29955","490","17021","space","2","legacy","1024","2","48000","-16","experiment","3","odd","190280","189575","48035","NA","1051","189778","18079","190280","190771","189570","1055","STROOP_task","47","64982.0","79","1024"
"60","60","818","818","#3d3846","xpyriment","legacy","legacy","c","1","undefined","1","q","undefined","79","79","0","0","0","79","0","79","79","79","0","Mon Dec 15 20:13:16 2025","The main experiment item","False","stroop_task.osexp","C:\Users\jobay\Downloads","False","mono","False","25","80","40","no","white","no","yes","768","legacy","79","79","G:\class task\subject-3.csv","xpyriment","8","3","Neonatal Nightingale","4.1.6","0","q","NA","space","q","530.0","NA","29955","530","17021","space","2","legacy","1024","2","48000","-16","experiment","3","odd","191736","191032","48035","NA","1051","191234","18079","191736","192267","191028","1055","STROOP_task","48","65512.0","80","1024"
"59","59","817","817","#3d3846","xpyriment","legacy","legacy","i","0","undefined","0","p","undefined","80","80","0","0","0","80","0","80","80","80","0","Mon Dec 15 20:13:16 2025","The main experiment item","False","stroop_task.osexp","C:\Users\jobay\Downloads","False","mono","False","25","80","40","no","white","no","yes","768","legacy","80","80","G:\class task\subject-3.csv","xpyriment","3","4","Neonatal Nightingale","4.1.6","0","q","NA","space","q","700.0","NA","29955","700","17021","space","2","legacy","1024","2","48000","-16","experiment","3","odd","193244","192538","48035","NA","1051","192742","18079","193244","193944","192534","1055","STROOP_task","48","66212.0","81","1024"
"59","59","813","813","#3d3846","xpyriment","legacy","legacy","c","1","undefined","1","p","undefined","81","81","0","0","0","81","0","81","81","81","0","Mon Dec 15 20:13:16 2025","The main experiment item","False","stroop_task.osexp","C:\Users\jobay\Downloads","False","mono","False","25","40","80","no","white","no","yes","768","legacy","81","81","G:\class task\subject-3.csv","xpyriment","1","2","Neonatal Nightingale","4.1.6","0","p","NA","space","p","463.0","NA","29955","463","17021","space","2","legacy","1024","2","48000","-16","experiment","3","odd","194907","194202","48035","NA","1051","194405","18079","194907","195371","194197","1055","STROOP_task","49","66675.0","82","1024"
"60","60","809","809","#3d3846","xpyriment","legacy","legacy","c","1","undefined","1","q","undefined","82","82","0","0","0","82","0","82","82","82","0","Mon Dec 15 20:13:16 2025","The main experiment item","False","stroop_task.osexp","C:\Users\jobay\Downloads","False","mono","False","25","80","40","no","white","no","yes","768","legacy","82","82","G:\class task\subject-3.csv","xpyriment","4","3","Neonatal Nightingale","4.1.6","0","q","NA","space","q","474.0","NA","29955","474","17021","space","2","legacy","1024","2","48000","-16","experiment","3","odd","196361","195657","48035","NA","1051","195859","18079","196361","196836","195653","1055","STROOP_task","50","67149.0","83","1024"
"60","60","804","804","#3d3846","xpyriment","legacy","legacy","c","1","undefined","1","p","undefined","83","83","0","0","0","83","0","83","83","83","0","Mon Dec 15 20:13:16 2025","The main experiment item","False","stroop_task.osexp","C:\Users\jobay\Downloads","False","mono","False","25","40","80","no","white","no","yes","768","legacy","83","83","G:\class task\subject-3.csv","xpyriment","6","7","Neonatal Nightingale","4.1.6","0","p","NA","space","p","426.0","NA","29955","426","17021","space","2","legacy","1024","2","48000","-16","experiment","3","odd","197826","197121","48035","NA","1051","197324","18079","197826","198253","197116","1055","STROOP_task","51","67575.0","84","1024"
"61","61","800","800","#3d3846","xpyriment","legacy","legacy","c","1","undefined","1","p","undefined","84","84","0","0","0","84","0","84","84","84","0","Mon Dec 15 20:13:16 2025","The main experiment item","False","stroop_task.osexp","C:\Users\jobay\Downloads","False","mono","False","25","40","80","no","white","no","yes","768","legacy","84","84","G:\class task\subject-3.csv","xpyriment","3","4","Neonatal Nightingale","4.1.6","0","p","NA","space","p","433.0","NA","29955","433","17021","space","2","legacy","1024","2","48000","-16","experiment","3","odd","199275","198570","48035","NA","1051","198772","18079","199275","199709","198565","1055","STROOP_task","52","68008.0","85","1024"
"60","60","796","796","#3d3846","xpyriment","legacy","legacy","i","0","undefined","0","p","undefined","85","85","0","0","0","85","0","85","85","85","0","Mon Dec 15 20:13:16 2025","The main experiment item","False","stroop_task.osexp","C:\Users\jobay\Downloads","False","mono","False","25","80","40","no","white","no","yes","768","legacy","85","85","G:\class task\subject-3.csv","xpyriment","6","7","Neonatal Nightingale","4.1.6","0","q","NA","space","q","449.0","NA","29955","449","17021","space","2","legacy","1024","2","48000","-16","experiment","3","odd","200699","199994","48035","NA","1051","200197","18079","200699","201149","199989","1055","STROOP_task","52","68457.0","86","1024"
"60","60","793","793","#3d3846","xpyriment","legacy","legacy","n","1","undefined","1","q","undefined","86","86","0","0","0","86","0","86","86","86","0","Mon Dec 15 20:13:16 2025","The main experiment item","False","stroop_task.osexp","C:\Users\jobay\Downloads","False","mono","False","25","60","60","no","white","no","yes","768","legacy","86","86","G:\class task\subject-3.csv","xpyriment","8","3","Neonatal Nightingale","4.1.6","0","q","NA","space","q","588.0","NA","29955","588","17021","space","2","legacy","1024","2","48000","-16","experiment","3","odd","202158","201453","48035","NA","1051","201656","18079","202158","202747","201448","1055","STROOP_task","53","69045.0","87","1024"
"60","60","792","792","#3d3846","xpyriment","legacy","legacy","i","0","undefined","0","p","undefined","87","87","0","0","0","87","0","87","87","87","0","Mon Dec 15 20:13:16 2025","The main experiment item","False","stroop_task.osexp","C:\Users\jobay\Downloads","False","mono","False","25","80","40","no","white","no","yes","768","legacy","87","87","G:\class task\subject-3.csv","xpyriment","1","2","Neonatal Nightingale","4.1.6","0","q","NA","space","q","659.0","NA","29955","659","17021","space","2","legacy","1024","2","48000","-16","experiment","3","odd","203715","203010","48035","NA","1051","203213","18079","203715","204375","203005","1055","STROOP_task","53","69704.0","88","1024"
"59","59","788","788","#3d3846","xpyriment","legacy","legacy","n","0","undefined","0","q","undefined","88","88","0","0","0","88","0","88","88","88","0","Mon Dec 15 20:13:16 2025","The main experiment item","False","stroop_task.osexp","C:\Users\jobay\Downloads","False","mono","False","25","60","60","no","white","no","yes","768","legacy","88","88","G:\class task\subject-3.csv","xpyriment","9","8","Neonatal Nightingale","4.1.6","0","p","NA","space","p","512.0","NA","29955","512","17021","space","2","legacy","1024","2","48000","-16","experiment","3","odd","205353","204649","48035","NA","1051","204851","18079","205353","205866","204645","1055","STROOP_task","53","70216.0","89","1024"
"58","58","785","785","#3d3846","xpyriment","legacy","legacy","i","0","undefined","0","p","undefined","89","89","0","0","0","89","0","89","89","89","0","Mon Dec 15 20:13:16 2025","The main experiment item","False","stroop_task.osexp","C:\Users\jobay\Downloads","False","mono","False","25","80","40","no","white","no","yes","768","legacy","89","89","G:\class task\subject-3.csv","xpyriment","8","9","Neonatal Nightingale","4.1.6","0","q","NA","space","q","498.0","NA","29955","498","17021","space","2","legacy","1024","2","48000","-16","experiment","3","odd","206830","206125","48035","NA","1051","206328","18079","206830","207329","206121","1055","STROOP_task","53","70714.0","90","1024"
"58","58","784","784","#3d3846","xpyriment","legacy","legacy","i","0","undefined","0","p","undefined","90","90","0","0","0","90","0","90","90","90","0","Mon Dec 15 20:13:16 2025","The main experiment item","False","stroop_task.osexp","C:\Users\jobay\Downloads","False","mono","False","25","80","40","no","white","no","yes","768","legacy","90","90","G:\class task\subject-3.csv","xpyriment","1","2","Neonatal Nightingale","4.1.6","0","q","NA","space","q","643.0","NA","29955","643","17021","space","2","legacy","1024","2","48000","-16","experiment","3","odd","208296","207591","48035","NA","1051","207793","18079","208296","208940","207586","1055","STROOP_task","53","71357.0","91","1024"
"58","58","784","784","#3d3846","xpyriment","legacy","legacy","c","1","undefined","1","q","undefined","91","91","0","0","0","91","0","91","91","91","0","Mon Dec 15 20:13:16 2025","The main experiment item","False","stroop_task.osexp","C:\Users\jobay\Downloads","False","mono","False","25","80","40","no","white","no","yes","768","legacy","91","91","G:\class task\subject-3.csv","xpyriment","6","1","Neonatal Nightingale","4.1.6","0","q","NA","space","q","847.0","NA","29955","847","17021","space","2","legacy","1024","2","48000","-16","experiment","3","odd","209897","209192","48035","NA","1051","209395","18079","209897","210745","209188","1055","STROOP_task","54","72204.0","92","1024"
"59","59","780","780","#3d3846","xpyriment","legacy","legacy","c","1","undefined","1","p","undefined","92","92","0","0","0","92","0","92","92","92","0","Mon Dec 15 20:13:16 2025","The main experiment item","False","stroop_task.osexp","C:\Users\jobay\Downloads","False","mono","False","25","40","80","no","white","no","yes","768","legacy","92","92","G:\class task\subject-3.csv","xpyriment","6","7","Neonatal Nightingale","4.1.6","0","p","NA","space","p","423.0","NA","29955","423","17021","space","2","legacy","1024","2","48000","-16","experiment","3","odd","211715","211005","48035","NA","1051","211208","18079","211715","212139","211001","1055","STROOP_task","55","72627.0","93","1024"
"58","58","777","777","#3d3846","xpyriment","legacy","legacy","i","0","undefined","0","q","undefined","93","93","0","0","0","93","0","93","93","93","0","Mon Dec 15 20:13:16 2025","The main experiment item","False","stroop_task.osexp","C:\Users\jobay\Downloads","False","mono","False","25","40","80","no","white","no","yes","768","legacy","93","93","G:\class task\subject-3.csv","xpyriment","2","1","Neonatal Nightingale","4.1.6","0","p","NA","space","p","502.0","NA","29955","502","17021","space","2","legacy","1024","2","48000","-16","experiment","3","odd","213123","212418","48035","NA","1051","212621","18079","213123","213626","212414","1055","STROOP_task","55","73129.0","94","1024"
"57","57","775","775","#3d3846","xpyriment","legacy","legacy","i","0","undefined","0","p","undefined","94","94","0","0","0","94","0","94","94","94","0","Mon Dec 15 20:13:16 2025","The main experiment item","False","stroop_task.osexp","C:\Users\jobay\Downloads","False","mono","False","25","80","40","no","white","no","yes","768","legacy","94","94","G:\class task\subject-3.csv","xpyriment","6","7","Neonatal Nightingale","4.1.6","0","q","NA","space","q","545.0","NA","29955","545","17021","space","2","legacy","1024","2","48000","-16","experiment","3","odd","214589","213885","48035","NA","1051","214087","18079","214589","215135","213880","1055","STROOP_task","55","73674.0","95","1024"
"57","57","775","775","#3d3846","xpyriment","legacy","legacy","i","0","undefined","0","p","undefined","95","95","0","0","0","95","0","95","95","95","0","Mon Dec 15 20:13:16 2025","The main experiment item","False","stroop_task.osexp","C:\Users\jobay\Downloads","False","mono","False","25","80","40","no","white","no","yes","768","legacy","95","95","G:\class task\subject-3.csv","xpyriment","1","6","Neonatal Nightingale","4.1.6","0","q","NA","space","q","804.0","NA","29955","804","17021","space","2","legacy","1024","2","48000","-16","experiment","3","odd","216084","215378","48035","NA","1051","215581","18079","216084","216889","215374","1055","STROOP_task","55","74478.0","96","1024"
"56","56","772","772","#3d3846","xpyriment","legacy","legacy","i","0","undefined","0","q","undefined","96","96","0","0","0","96","0","96","96","96","0","Mon Dec 15 20:13:16 2025","The main experiment item","False","stroop_task.osexp","C:\Users\jobay\Downloads","False","mono","False","25","40","80","no","white","no","yes","768","legacy","96","96","G:\class task\subject-3.csv","xpyriment","9","4","Neonatal Nightingale","4.1.6","0","p","NA","space","p","442.0","NA","29955","442","17021","space","2","legacy","1024","2","48000","-16","experiment","3","odd","217874","217169","48035","NA","1051","217372","18079","217874","218317","217164","1055","STROOP_task","55","74920.0","97","1024"
"57","57","771","771","#3d3846","xpyriment","legacy","legacy","c","1","undefined","1","q","undefined","97","97","0","0","0","97","0","97","97","97","0","Mon Dec 15 20:13:16 2025","The main experiment item","False","stroop_task.osexp","C:\Users\jobay\Downloads","False","mono","False","25","80","40","no","white","no","yes","768","legacy","97","97","G:\class task\subject-3.csv","xpyriment","2","1","Neonatal Nightingale","4.1.6","0","q","NA","space","q","645.0","NA","29955","645","17021","space","2","legacy","1024","2","48000","-16","experiment","3","odd","219294","218589","48035","NA","1051","218792","18079","219294","219940","218585","1055","STROOP_task","56","75565.0","98","1024"
"56","56","767","767","#3d3846","xpyriment","legacy","legacy","i","0","undefined","0","q","undefined","98","98","0","0","0","98","0","98","98","98","0","Mon Dec 15 20:13:16 2025","The main experiment item","False","stroop_task.osexp","C:\Users\jobay\Downloads","False","mono","False","25","40","80","no","white","no","yes","768","legacy","98","98","G:\class task\subject-3.csv","xpyriment","6","1","Neonatal Nightingale","4.1.6","0","p","NA","space","p","405.0","NA","29955","405","17021","space","2","legacy","1024","2","48000","-16","experiment","3","odd","220946","220241","48035","NA","1051","220444","18079","220946","221351","220236","1055","STROOP_task","56","75970.0","99","1024"
"57","57","763","763","#3d3846","xpyriment","legacy","legacy","c","1","undefined","1","p","undefined","99","99","0","0","0","99","0","99","99","99","0","Mon Dec 15 20:13:16 2025","The main experiment item","False","stroop_task.osexp","C:\Users\jobay\Downloads","False","mono","False","25","40","80","no","white","no","yes","768","legacy","99","99","G:\class task\subject-3.csv","xpyriment","8","9","Neonatal Nightingale","4.1.6","0","p","NA","space","p","410.0","NA","29955","410","17021","space","2","legacy","1024","2","48000","-16","experiment","3","odd","222343","221638","48035","NA","1051","221841","18079","222343","222754","221634","1055","STROOP_task","57","76380.0","100","1024"
"57","57","761","761","#3d3846","xpyriment","legacy","legacy","n","1","undefined","1","p","undefined","100","100","0","0","0","100","0","100","100","100","0","Mon Dec 15 20:13:16 2025","The main experiment item","False","stroop_task.osexp","C:\Users\jobay\Downloads","False","mono","False","25","60","60","no","white","no","yes","768","legacy","100","100","G:\class task\subject-3.csv","xpyriment","1","2","Neonatal Nightingale","4.1.6","0","p","NA","space","p","535.0","NA","29955","535","17021","space","2","legacy","1024","2","48000","-16","experiment","3","odd","223747","223043","48035","NA","1051","223245","18079","223747","224283","223039","1055","STROOP_task","58","76915.0","101","1024"
"57","57","759","759","#3d3846","xpyriment","legacy","legacy","n","1","undefined","1","p","undefined","101","101","0","0","0","101","0","101","101","101","0","Mon Dec 15 20:13:16 2025","The main experiment item","False","stroop_task.osexp","C:\Users\jobay\Downloads","False","mono","False","25","60","60","no","white","no","yes","768","legacy","101","101","G:\class task\subject-3.csv","xpyriment","1","6","Neonatal Nightingale","4.1.6","0","p","NA","space","p","505.0","NA","29955","505","17021","space","2","legacy","1024","2","48000","-16","experiment","3","odd","225271","224566","48035","NA","1051","224769","18079","225271","225777","224561","1055","STROOP_task","59","77420.0","102","1024"
"58","58","756","756","#3d3846","xpyriment","legacy","legacy","c","1","undefined","1","p","undefined","102","102","0","0","0","102","0","102","102","102","0","Mon Dec 15 20:13:16 2025","The main experiment item","False","stroop_task.osexp","C:\Users\jobay\Downloads","False","mono","False","25","40","80","no","white","no","yes","768","legacy","102","102","G:\class task\subject-3.csv","xpyriment","4","9","Neonatal Nightingale","4.1.6","0","p","NA","space","p","518.0","NA","29955","518","17021","space","2","legacy","1024","2","48000","-16","experiment","3","odd","226770","226065","48035","NA","1051","226268","18079","226770","227289","226060","1055","STROOP_task","60","77938.0","103","1024"
"58","58","776","776","#3d3846","xpyriment","legacy","legacy","n","1","undefined","1","q","undefined","103","103","0","0","0","103","0","103","103","103","0","Mon Dec 15 20:13:16 2025","The main experiment item","False","stroop_task.osexp","C:\Users\jobay\Downloads","False","mono","False","25","60","60","no","white","no","yes","768","legacy","103","103","G:\class task\subject-3.csv","xpyriment","7","6","Neonatal Nightingale","4.1.6","0","q","NA","space","q","2851.0","NA","29955","2851","17021","space","2","legacy","1024","2","48000","-16","experiment","3","odd","228283","227578","48035","NA","1051","227781","18079","228283","231136","227574","1055","STROOP_task","61","80789.0","104","1024"
"59","59","776","776","#3d3846","xpyriment","legacy","legacy","n","1","undefined","1","p","undefined","104","104","0","0","0","104","0","104","104","104","0","Mon Dec 15 20:13:16 2025","The main experiment item","False","stroop_task.osexp","C:\Users\jobay\Downloads","False","mono","False","25","60","60","no","white","no","yes","768","legacy","104","104","G:\class task\subject-3.csv","xpyriment","2","7","Neonatal Nightingale","4.1.6","0","p","NA","space","p","733.0","NA","29955","733","17021","space","2","legacy","1024","2","48000","-16","experiment","3","odd","232159","231453","48035","NA","1051","231656","18079","232159","232893","231449","1055","STROOP_task","62","81522.0","105","1024"
"59","59","774","774","#3d3846","xpyriment","legacy","legacy","c","1","undefined","1","q","undefined","105","105","0","0","0","105","0","105","105","105","0","Mon Dec 15 20:13:16 2025","The main experiment item","False","stroop_task.osexp","C:\Users\jobay\Downloads","False","mono","False","25","80","40","no","white","no","yes","768","legacy","105","105","G:\class task\subject-3.csv","xpyriment","9","8","Neonatal Nightingale","4.1.6","0","q","NA","space","q","529.0","NA","29955","529","17021","space","2","legacy","1024","2","48000","-16","experiment","3","odd","233854","233148","48035","NA","1051","233352","18079","233854","234384","233144","1055","STROOP_task","63","82051.0","106","1024"
"58","58","771","771","#3d3846","xpyriment","legacy","legacy","i","0","undefined","0","p","undefined","106","106","0","0","0","106","0","106","106","106","0","Mon Dec 15 20:13:16 2025","The main experiment item","False","stroop_task.osexp","C:\Users\jobay\Downloads","False","mono","False","25","80","40","no","white","no","yes","768","legacy","106","106","G:\class task\subject-3.csv","xpyriment","8","9","Neonatal Nightingale","4.1.6","0","q","NA","space","q","533.0","NA","29955","533","17021","space","2","legacy","1024","2","48000","-16","experiment","3","odd","235341","234637","48035","NA","1051","234839","18079","235341","235874","234633","1055","STROOP_task","63","82584.0","107","1024"
"59","59","769","769","#3d3846","xpyriment","legacy","legacy","c","1","undefined","1","p","undefined","107","107","0","0","0","107","0","107","107","107","0","Mon Dec 15 20:13:16 2025","The main experiment item","False","stroop_task.osexp","C:\Users\jobay\Downloads","False","mono","False","25","40","80","no","white","no","yes","768","legacy","107","107","G:\class task\subject-3.csv","xpyriment","4","9","Neonatal Nightingale","4.1.6","0","p","NA","space","p","556.0","NA","29955","556","17021","space","2","legacy","1024","2","48000","-16","experiment","3","odd","236860","236156","48035","NA","1051","236358","18079","236860","237417","236152","1055","STROOP_task","64","83140.0","108","1024"
"58","58","767","767","#3d3846","xpyriment","legacy","legacy","i","0","undefined","0","q","undefined","108","108","0","0","0","108","0","108","108","108","0","Mon Dec 15 20:13:16 2025","The main experiment item","False","stroop_task.osexp","C:\Users\jobay\Downloads","False","mono","False","25","40","80","no","white","no","yes","768","legacy","108","108","G:\class task\subject-3.csv","xpyriment","9","8","Neonatal Nightingale","4.1.6","0","p","NA","space","p","521.0","NA","29955","521","17021","space","2","legacy","1024","2","48000","-16","experiment","3","odd","238399","237694","48035","NA","1051","237897","18079","238399","238921","237689","1055","STROOP_task","64","83661.0","109","1024"
"58","58","769","769","#3d3846","xpyriment","legacy","legacy","n","0","undefined","0","q","undefined","109","109","0","0","0","109","0","109","109","109","0","Mon Dec 15 20:13:16 2025","The main experiment item","False","stroop_task.osexp","C:\Users\jobay\Downloads","False","mono","False","25","60","60","no","white","no","yes","768","legacy","109","109","G:\class task\subject-3.csv","xpyriment","4","3","Neonatal Nightingale","4.1.6","0","p","NA","space","p","974.0","NA","29955","974","17021","space","2","legacy","1024","2","48000","-16","experiment","3","odd","239920","239214","48035","NA","1051","239417","18079","239920","240895","239210","1055","STROOP_task","64","84635.0","110","1024"
"58","58","773","773","#3d3846","xpyriment","legacy","legacy","n","1","undefined","1","q","undefined","110","110","0","0","0","110","0","110","110","110","0","Mon Dec 15 20:13:16 2025","The main experiment item","False","stroop_task.osexp","C:\Users\jobay\Downloads","False","mono","False","25","60","60","no","white","no","yes","768","legacy","110","110","G:\class task\subject-3.csv","xpyriment","7","2","Neonatal Nightingale","4.1.6","0","q","NA","space","q","1193.0","NA","29955","1193","17021","space","2","legacy","1024","2","48000","-16","experiment","3","odd","241864","241154","48035","NA","1051","241362","18079","241864","243058","241150","1055","STROOP_task","65","85828.0","111","1024"
"58","58","782","782","#3d3846","xpyriment","legacy","legacy","n","1","undefined","1","p","undefined","111","111","0","0","0","111","0","111","111","111","0","Mon Dec 15 20:13:16 2025","The main experiment item","False","stroop_task.osexp","C:\Users\jobay\Downloads","False","mono","False","25","60","60","no","white","no","yes","768","legacy","111","111","G:\class task\subject-3.csv","xpyriment","3","4","Neonatal Nightingale","4.1.6","0","p","NA","space","p","1838.0","NA","29955","1838","17021","space","2","legacy","1024","2","48000","-16","experiment","3","odd","244025","243320","48035","NA","1051","243523","18079","244025","245864","243315","1055","STROOP_task","66","87666.0","112","1024"
"58","58","789","789","#3d3846","xpyriment","legacy","legacy","i","0","undefined","0","p","undefined","112","112","0","0","0","112","0","112","112","112","0","Mon Dec 15 20:13:16 2025","The main experiment item","False","stroop_task.osexp","C:\Users\jobay\Downloads","False","mono","False","25","80","40","no","white","no","yes","768","legacy","112","112","G:\class task\subject-3.csv","xpyriment","4","9","Neonatal Nightingale","4.1.6","0","q","NA","space","q","1534.0","NA","29955","1534","17021","space","2","legacy","1024","2","48000","-16","experiment","3","odd","246828","246124","48035","NA","1051","246326","18079","246828","248363","246120","1055","STROOP_task","66","89200.0","113","1024"
"57","57","801","801","#3d3846","xpyriment","legacy","legacy","i","0","undefined","0","p","undefined","113","113","0","0","0","113","0","113","113","113","0","Mon Dec 15 20:13:16 2025","The main experiment item","False","stroop_task.osexp","C:\Users\jobay\Downloads","False","mono","False","25","80","40","no","white","no","yes","768","legacy","113","113","G:\class task\subject-3.csv","xpyriment","1","6","Neonatal Nightingale","4.1.6","0","q","NA","space","q","2151.0","NA","29955","2151","17021","space","2","legacy","1024","2","48000","-16","experiment","3","odd","249345","248640","48035","NA","1051","248843","18079","249345","251497","248635","1055","STROOP_task","66","91351.0","114","1024"
"57","57","803","803","#3d3846","xpyriment","legacy","legacy","i","0","undefined","0","p","undefined","114","114","0","0","0","114","0","114","114","114","0","Mon Dec 15 20:13:16 2025","The main experiment item","False","stroop_task.osexp","C:\Users\jobay\Downloads","False","mono","False","25","80","40","no","white","no","yes","768","legacy","114","114","G:\class task\subject-3.csv","xpyriment","8","9","Neonatal Nightingale","4.1.6","0","q","NA","space","q","1029.0","NA","29955","1029","17021","space","2","legacy","1024","2","48000","-16","experiment","3","odd","252516","251811","48035","NA","1051","252014","18079","252516","253546","251806","1055","STROOP_task","66","92380.0","115","1024"
"57","57","806","806","#3d3846","xpyriment","legacy","legacy","n","1","undefined","1","p","undefined","115","115","0","0","0","115","0","115","115","115","0","Mon Dec 15 20:13:16 2025","The main experiment item","False","stroop_task.osexp","C:\Users\jobay\Downloads","False","mono","False","25","60","60","no","white","no","yes","768","legacy","115","115","G:\class task\subject-3.csv","xpyriment","4","9","Neonatal Nightingale","4.1.6","0","p","NA","space","p","1229.0","NA","29955","1229","17021","space","2","legacy","1024","2","48000","-16","experiment","3","odd","254550","253844","48035","NA","1051","254047","18079","254550","255781","253839","1055","STROOP_task","67","93609.0","116","1024"
"58","58","808","808","#3d3846","xpyriment","legacy","legacy","c","1","undefined","1","q","undefined","116","116","0","0","0","116","0","116","116","116","0","Mon Dec 15 20:13:16 2025","The main experiment item","False","stroop_task.osexp","C:\Users\jobay\Downloads","False","mono","False","25","80","40","no","white","no","yes","768","legacy","116","116","G:\class task\subject-3.csv","xpyriment","7","2","Neonatal Nightingale","4.1.6","0","q","NA","space","q","1020.0","NA","29955","1020","17021","space","2","legacy","1024","2","48000","-16","experiment","3","odd","256781","256077","48035","NA","1051","256279","18079","256781","257802","256073","1055","STROOP_task","68","94629.0","117","1024"
"57","57","814","814","#3d3846","xpyriment","legacy","legacy","n","0","undefined","0","q","undefined","117","117","0","0","0","117","0","117","117","117","0","Mon Dec 15 20:13:16 2025","The main experiment item","False","stroop_task.osexp","C:\Users\jobay\Downloads","False","mono","False","25","60","60","no","white","no","yes","768","legacy","117","117","G:\class task\subject-3.csv","xpyriment","6","1","Neonatal Nightingale","4.1.6","0","p","NA","space","p","1537.0","NA","29955","1537","17021","space","2","legacy","1024","2","48000","-16","experiment","3","odd","258799","258094","48035","NA","1051","258296","18079","258799","260337","258089","1055","STROOP_task","68","96166.0","118","1024"
"57","57","813","813","#3d3846","xpyriment","legacy","legacy","n","1","undefined","1","p","undefined","118","118","0","0","0","118","0","118","118","118","0","Mon Dec 15 20:13:16 2025","The main experiment item","False","stroop_task.osexp","C:\Users\jobay\Downloads","False","mono","False","25","60","60","no","white","no","yes","768","legacy","118","118","G:\class task\subject-3.csv","xpyriment","3","8","Neonatal Nightingale","4.1.6","0","p","NA","space","p","688.0","NA","29955","688","17021","space","2","legacy","1024","2","48000","-16","experiment","3","odd","261343","260637","48035","NA","1051","260840","18079","261343","262032","260632","1055","STROOP_task","69","96854.0","119","1024"
"57","57","811","811","#3d3846","xpyriment","legacy","legacy","i","0","undefined","0","p","undefined","119","119","0","0","0","119","0","119","119","119","0","Mon Dec 15 20:13:16 2025","The main experiment item","False","stroop_task.osexp","C:\Users\jobay\Downloads","False","mono","False","25","80","40","no","white","no","yes","768","legacy","119","119","G:\class task\subject-3.csv","xpyriment","3","8","Neonatal Nightingale","4.1.6","0","q","NA","space","q","500.0","NA","29955","500","17021","space","2","legacy","1024","2","48000","-16","experiment","3","odd","263021","262317","48035","NA","1051","262519","18079","263021","263522","262312","1055","STROOP_task","69","97354.0","120","1024"
"57","57","808","808","#3d3846","xpyriment","legacy","legacy","n","0","undefined","0","q","undefined","120","120","0","0","0","120","0","120","120","120","0","Mon Dec 15 20:13:16 2025","The main experiment item","False","stroop_task.osexp","C:\Users\jobay\Downloads","False","mono","False","25","60","60","no","white","no","yes","768","legacy","120","120","G:\class task\subject-3.csv","xpyriment","4","3","Neonatal Nightingale","4.1.6","0","p","NA","space","p","516.0","NA","29955","516","17021","space","2","legacy","1024","2","48000","-16","experiment","3","odd","264510","263805","48035","NA","1051","264007","18079","264510","265027","263801","1055","STROOP_task","69","97870.0","121","1024"
"56","56","810","810","#3d3846","xpyriment","legacy","legacy","n","0","undefined","0","q","undefined","121","121","0","0","0","121","0","121","121","121","0","Mon Dec 15 20:13:16 2025","The main experiment item","False","stroop_task.osexp","C:\Users\jobay\Downloads","False","mono","False","25","60","60","no","white","no","yes","768","legacy","121","121","G:\class task\subject-3.csv","xpyriment","4","3","Neonatal Nightingale","4.1.6","0","p","NA","space","p","988.0","NA","29955","988","17021","space","2","legacy","1024","2","48000","-16","experiment","3","odd","266055","265350","48035","NA","1051","265553","18079","266055","267044","265346","1055","STROOP_task","69","98858.0","122","1024"
"56","56","808","808","#3d3846","xpyriment","legacy","legacy","c","1","undefined","1","p","undefined","122","122","0","0","0","122","0","122","122","122","0","Mon Dec 15 20:13:16 2025","The main experiment item","False","stroop_task.osexp","C:\Users\jobay\Downloads","False","mono","False","25","40","80","no","white","no","yes","768","legacy","122","122","G:\class task\subject-3.csv","xpyriment","6","7","Neonatal Nightingale","4.1.6","0","p","NA","space","p","597.0","NA","29955","597","17021","space","2","legacy","1024","2","48000","-16","experiment","3","odd","268057","267353","48035","NA","1051","267555","18079","268057","268655","267349","1055","STROOP_task","70","99455.0","123","1024"
"57","57","806","806","#3d3846","xpyriment","legacy","legacy","c","1","undefined","1","q","undefined","123","123","0","0","0","123","0","123","123","123","0","Mon Dec 15 20:13:16 2025","The main experiment item","False","stroop_task.osexp","C:\Users\jobay\Downloads","False","mono","False","25","80","40","no","white","no","yes","768","legacy","123","123","G:\class task\subject-3.csv","xpyriment","2","1","Neonatal Nightingale","4.1.6","0","q","NA","space","q","547.0","NA","29955","547","17021","space","2","legacy","1024","2","48000","-16","experiment","3","odd","269633","268928","48035","NA","1051","269131","18079","269633","270181","268923","1055","STROOP_task","71","100002.0","124","1024"
"57","57","803","803","#3d3846","xpyriment","legacy","legacy","c","1","undefined","1","p","undefined","124","124","0","0","0","124","0","124","124","124","0","Mon Dec 15 20:13:16 2025","The main experiment item","False","stroop_task.osexp","C:\Users\jobay\Downloads","False","mono","False","25","40","80","no","white","no","yes","768","legacy","124","124","G:\class task\subject-3.csv","xpyriment","8","9","Neonatal Nightingale","4.1.6","0","p","NA","space","p","452.0","NA","29955","452","17021","space","2","legacy","1024","2","48000","-16","experiment","3","odd","271142","270435","48035","NA","1051","270639","18079","271142","271595","270431","1055","STROOP_task","72","100454.0","125","1024"
"57","57","802","802","#3d3846","xpyriment","legacy","legacy","c","1","undefined","1","q","undefined","125","125","0","0","0","125","0","125","125","125","0","Mon Dec 15 20:13:16 2025","The main experiment item","False","stroop_task.osexp","C:\Users\jobay\Downloads","False","mono","False","25","80","40","no","white","no","yes","768","legacy","125","125","G:\class task\subject-3.csv","xpyriment","9","4","Neonatal Nightingale","4.1.6","0","q","NA","space","q","608.0","NA","29955","608","17021","space","2","legacy","1024","2","48000","-16","experiment","3","odd","272559","271855","48035","NA","1051","272057","18079","272559","273168","271850","1055","STROOP_task","73","101062.0","126","1024"
"57","57","800","800","#3d3846","xpyriment","legacy","legacy","i","0","undefined","0","p","undefined","126","126","0","0","0","126","0","126","126","126","0","Mon Dec 15 20:13:16 2025","The main experiment item","False","stroop_task.osexp","C:\Users\jobay\Downloads","False","mono","False","25","80","40","no","white","no","yes","768","legacy","126","126","G:\class task\subject-3.csv","xpyriment","3","4","Neonatal Nightingale","4.1.6","0","q","NA","space","q","633.0","NA","29955","633","17021","space","2","legacy","1024","2","48000","-16","experiment","3","odd","274151","273446","48035","NA","1051","273649","18079","274151","274785","273442","1055","STROOP_task","73","101695.0","127","1024"
"57","57","798","798","#3d3846","xpyriment","legacy","legacy","i","0","undefined","0","q","undefined","127","127","0","0","0","127","0","127","127","127","0","Mon Dec 15 20:13:16 2025","The main experiment item","False","stroop_task.osexp","C:\Users\jobay\Downloads","False","mono","False","25","40","80","no","white","no","yes","768","legacy","127","127","G:\class task\subject-3.csv","xpyriment","6","1","Neonatal Nightingale","4.1.6","0","p","NA","space","p","491.0","NA","29955","491","17021","space","2","legacy","1024","2","48000","-16","experiment","3","odd","275691","274987","48035","NA","1051","275189","18079","275691","276183","274983","1055","STROOP_task","73","102186.0","128","1024"
"57","57","796","796","#3d3846","xpyriment","legacy","legacy","c","1","undefined","1","p","undefined","128","128","0","0","0","128","0","128","128","128","0","Mon Dec 15 20:13:16 2025","The main experiment item","False","stroop_task.osexp","C:\Users\jobay\Downloads","False","mono","False","25","40","80","no","white","no","yes","768","legacy","128","128","G:\class task\subject-3.csv","xpyriment","3","8","Neonatal Nightingale","4.1.6","0","p","NA","space","p","507.0","NA","29955","507","17021","space","2","legacy","1024","2","48000","-16","experiment","3","odd","277147","276442","48035","NA","1051","276644","18079","277147","277655","276437","1055","STROOP_task","74","102693.0","129","1024"
"56","56","793","793","#3d3846","xpyriment","legacy","legacy","i","0","undefined","0","q","undefined","129","129","0","0","0","129","0","129","129","129","0","Mon Dec 15 20:13:16 2025","The main experiment item","False","stroop_task.osexp","C:\Users\jobay\Downloads","False","mono","False","25","40","80","no","white","no","yes","768","legacy","129","129","G:\class task\subject-3.csv","xpyriment","8","3","Neonatal Nightingale","4.1.6","0","p","NA","space","p","486.0","NA","29955","486","17021","space","2","legacy","1024","2","48000","-16","experiment","3","odd","278638","277934","48035","NA","1051","278136","18079","278638","279125","277930","1055","STROOP_task","74","103179.0","130","1024"
"57","57","791","791","#3d3846","xpyriment","legacy","legacy","c","1","undefined","1","q","undefined","130","130","0","0","0","130","0","130","130","130","0","Mon Dec 15 20:13:16 2025","The main experiment item","False","stroop_task.osexp","C:\Users\jobay\Downloads","False","mono","False","25","80","40","no","white","no","yes","768","legacy","130","130","G:\class task\subject-3.csv","xpyriment","7","6","Neonatal Nightingale","4.1.6","0","q","NA","space","q","459.0","NA","29955","459","17021","space","2","legacy","1024","2","48000","-16","experiment","3","odd","280079","279375","48035","NA","1051","279577","18079","280079","280539","279371","1055","STROOP_task","75","103638.0","131","1024"
"57","57","788","788","#3d3846","xpyriment","legacy","legacy","c","1","undefined","1","q","undefined","131","131","0","0","0","131","0","131","131","131","0","Mon Dec 15 20:13:16 2025","The main experiment item","False","stroop_task.osexp","C:\Users\jobay\Downloads","False","mono","False","25","80","40","no","white","no","yes","768","legacy","131","131","G:\class task\subject-3.csv","xpyriment","9","8","Neonatal Nightingale","4.1.6","0","q","NA","space","q","497.0","NA","29955","497","17021","space","2","legacy","1024","2","48000","-16","experiment","3","odd","281487","280782","48035","NA","1051","280985","18079","281487","281985","280777","1055","STROOP_task","76","104135.0","132","1024"
"57","57","786","786","#3d3846","xpyriment","legacy","legacy","i","0","undefined","0","q","undefined","132","132","0","0","0","132","0","132","132","132","0","Mon Dec 15 20:13:16 2025","The main experiment item","False","stroop_task.osexp","C:\Users\jobay\Downloads","False","mono","False","25","40","80","no","white","no","yes","768","legacy","132","132","G:\class task\subject-3.csv","xpyriment","8","3","Neonatal Nightingale","4.1.6","0","p","NA","space","p","424.0","NA","29955","424","17021","space","2","legacy","1024","2","48000","-16","experiment","3","odd","282947","282242","48035","NA","1051","282445","18079","282947","283372","282238","1055","STROOP_task","76","104559.0","133","1024"
"56","56","785","785","#3d3846","xpyriment","legacy","legacy","i","0","undefined","0","p","undefined","133","133","0","0","0","133","0","133","133","133","0","Mon Dec 15 20:13:16 2025","The main experiment item","False","stroop_task.osexp","C:\Users\jobay\Downloads","False","mono","False","25","80","40","no","white","no","yes","768","legacy","133","133","G:\class task\subject-3.csv","xpyriment","3","8","Neonatal Nightingale","4.1.6","0","q","NA","space","q","668.0","NA","29955","668","17021","space","2","legacy","1024","2","48000","-16","experiment","3","odd","284363","283658","48035","NA","1051","283861","18079","284363","285032","283654","1055","STROOP_task","76","105227.0","134","1024"
"56","56","782","782","#3d3846","xpyriment","legacy","legacy","i","0","undefined","0","q","undefined","134","134","0","0","0","134","0","134","134","134","0","Mon Dec 15 20:13:16 2025","The main experiment item","False","stroop_task.osexp","C:\Users\jobay\Downloads","False","mono","False","25","40","80","no","white","no","yes","768","legacy","134","134","G:\class task\subject-3.csv","xpyriment","9","8","Neonatal Nightingale","4.1.6","0","p","NA","space","p","424.0","NA","29955","424","17021","space","2","legacy","1024","2","48000","-16","experiment","3","odd","285972","285267","48035","NA","1051","285470","18079","285972","286397","285263","1055","STROOP_task","76","105651.0","135","1024"
"56","56","780","780","#3d3846","xpyriment","legacy","legacy","c","1","undefined","1","q","undefined","135","135","0","0","0","135","0","135","135","135","0","Mon Dec 15 20:13:16 2025","The main experiment item","False","stroop_task.osexp","C:\Users\jobay\Downloads","False","mono","False","25","80","40","no","white","no","yes","768","legacy","135","135","G:\class task\subject-3.csv","xpyriment","6","1","Neonatal Nightingale","4.1.6","0","q","NA","space","q","532.0","NA","29955","532","17021","space","2","legacy","1024","2","48000","-16","experiment","3","odd","287386","286681","48035","NA","1051","286884","18079","287386","287919","286677","1055","STROOP_task","77","106183.0","136","1024"
"56","56","779","779","#3d3846","xpyriment","legacy","legacy","c","1","undefined","1","q","undefined","136","136","0","0","0","136","0","136","136","136","0","Mon Dec 15 20:13:16 2025","The main experiment item","False","stroop_task.osexp","C:\Users\jobay\Downloads","False","mono","False","25","80","40","no","white","no","yes","768","legacy","136","136","G:\class task\subject-3.csv","xpyriment","8","3","Neonatal Nightingale","4.1.6","0","q","NA","space","q","598.0","NA","29955","598","17021","space","2","legacy","1024","2","48000","-16","experiment","3","odd","288924","288219","48035","NA","1051","288422","18079","288924","289523","288215","1055","STROOP_task","78","106781.0","137","1024"
"57","57","778","778","#3d3846","xpyriment","legacy","legacy","n","1","undefined","1","p","undefined","137","137","0","0","0","137","0","137","137","137","0","Mon Dec 15 20:13:16 2025","The main experiment item","False","stroop_task.osexp","C:\Users\jobay\Downloads","False","mono","False","25","60","60","no","white","no","yes","768","legacy","137","137","G:\class task\subject-3.csv","xpyriment","4","9","Neonatal Nightingale","4.1.6","0","p","NA","space","p","613.0","NA","29955","613","17021","space","2","legacy","1024","2","48000","-16","experiment","3","odd","290512","289807","48035","NA","1051","290010","18079","290512","291126","289802","1055","STROOP_task","79","107394.0","138","1024"
"56","56","776","776","#3d3846","xpyriment","legacy","legacy","i","0","undefined","0","q","undefined","138","138","0","0","0","138","0","138","138","138","0","Mon Dec 15 20:13:16 2025","The main experiment item","False","stroop_task.osexp","C:\Users\jobay\Downloads","False","mono","False","25","40","80","no","white","no","yes","768","legacy","138","138","G:\class task\subject-3.csv","xpyriment","6","1","Neonatal Nightingale","4.1.6","0","p","NA","space","p","507.0","NA","29955","507","17021","space","2","legacy","1024","2","48000","-16","experiment","3","odd","292148","291444","48035","NA","1051","291646","18079","292148","292656","291440","1055","STROOP_task","79","107901.0","139","1024"
"56","56","778","778","#3d3846","xpyriment","legacy","legacy","n","0","undefined","0","q","undefined","139","139","0","0","0","139","0","139","139","139","0","Mon Dec 15 20:13:16 2025","The main experiment item","False","stroop_task.osexp","C:\Users\jobay\Downloads","False","mono","False","25","60","60","no","white","no","yes","768","legacy","139","139","G:\class task\subject-3.csv","xpyriment","7","2","Neonatal Nightingale","4.1.6","0","p","NA","space","p","1034.0","NA","29955","1034","17021","space","2","legacy","1024","2","48000","-16","experiment","3","odd","293641","292937","48035","NA","1051","293139","18079","293641","294676","292932","1055","STROOP_task","79","108935.0","140","1024"
"56","56","775","775","#3d3846","xpyriment","legacy","legacy","c","1","undefined","1","p","undefined","140","140","0","0","0","140","0","140","140","140","0","Mon Dec 15 20:13:16 2025","The main experiment item","False","stroop_task.osexp","C:\Users\jobay\Downloads","False","mono","False","25","40","80","no","white","no","yes","768","legacy","140","140","G:\class task\subject-3.csv","xpyriment","1","6","Neonatal Nightingale","4.1.6","0","p","NA","space","p","472.0","NA","29955","472","17021","space","2","legacy","1024","2","48000","-16","experiment","3","odd","295648","294944","48035","NA","1051","295146","18079","295648","296121","294939","1055","STROOP_task","80","109407.0","141","1024"
"56","56","773","773","#3d3846","xpyriment","legacy","legacy","i","0","undefined","0","p","undefined","141","141","0","0","0","141","0","141","141","141","0","Mon Dec 15 20:13:16 2025","The main experiment item","False","stroop_task.osexp","C:\Users\jobay\Downloads","False","mono","False","25","80","40","no","white","no","yes","768","legacy","141","141","G:\class task\subject-3.csv","xpyriment","2","7","Neonatal Nightingale","4.1.6","0","q","NA","space","q","427.0","NA","29955","427","17021","space","2","legacy","1024","2","48000","-16","experiment","3","odd","297081","296377","48035","NA","1051","296579","18079","297081","297509","296372","1055","STROOP_task","80","109834.0","142","1024"
