"acc","accuracy","average_response_time","avg_rt","background","canvas_backend","clock_backend","color_backend","condition","correct","correct_intructions","correct_key_response","correct_resp","correct_welcome_message","count_Number","count_blank","count_block_loop","count_end_message","count_experiment","count_fixation","count_intructions","count_key_response","count_logger","count_trial_sequence","count_welcome_message","datetime","description","disable_garbage_collection","experiment_file","experiment_path","font_bold","font_family","font_italic","font_size","font_size_left","font_size_right","font_underline","foreground","form_clicks","fullscreen","height","keyboard_backend","live_row","live_row_block_loop","logfile","mouse_backend","number_left","number_right","opensesame_codename","opensesame_version","repeat_cycle","response","response_end_message","response_intructions","response_key_response","response_time","response_time_end_message","response_time_intructions","response_time_key_response","response_time_welcome_message","response_welcome_message","round_decimals","sampler_backend","sound_buf_size","sound_channels","sound_freq","sound_sample_size","start","subject_nr","subject_parity","time_Number","time_blank","time_block_loop","time_end_message","time_experiment","time_fixation","time_intructions","time_key_response","time_logger","time_trial_sequence","time_welcome_message","title","total_correct","total_response_time","total_responses","width"
"100","100","2680","2680","#3d3846","xpyriment","legacy","legacy","i","1","undefined","1","q","undefined","0","0","0","0","0","0","0","0","0","0","0","Mon Dec 15 20:41:49 2025","The main experiment item","False","stroop_task.osexp","C:\Users\jobay\Downloads","False","mono","False","25","40","80","no","white","no","yes","768","legacy","0","0","G:\class task\subject-5.csv","xpyriment","8","3","Neonatal Nightingale","4.1.6","0","q","NA","space","q","2680.0","NA","57591","2680","12637","space","2","legacy","1024","2","48000","-16","experiment","5","odd","74323","73619","73404","NA","3167","73821","15812","74323","77004","73614","3172","STROOP_task","1","2680.0","1","1024"
"100","100","1392","1392","#3d3846","xpyriment","legacy","legacy","c","1","undefined","1","q","undefined","1","1","0","0","0","1","0","1","1","1","0","Mon Dec 15 20:41:49 2025","The main experiment item","False","stroop_task.osexp","C:\Users\jobay\Downloads","False","mono","False","25","80","40","no","white","no","yes","768","legacy","1","1","G:\class task\subject-5.csv","xpyriment","9","4","Neonatal Nightingale","4.1.6","0","q","NA","space","q","105.0","NA","57591","105","12637","space","2","legacy","1024","2","48000","-16","experiment","5","odd","78275","77571","73404","NA","3167","77773","15812","78275","78381","77566","3172","STROOP_task","2","2785.0","2","1024"
"100","100","2734","2734","#3d3846","xpyriment","legacy","legacy","c","1","undefined","1","p","undefined","2","2","0","0","0","2","0","2","2","2","0","Mon Dec 15 20:41:49 2025","The main experiment item","False","stroop_task.osexp","C:\Users\jobay\Downloads","False","mono","False","25","40","80","no","white","no","yes","768","legacy","2","2","G:\class task\subject-5.csv","xpyriment","6","7","Neonatal Nightingale","4.1.6","0","p","NA","space","p","5418.0","NA","57591","5418","12637","space","2","legacy","1024","2","48000","-16","experiment","5","odd","79371","78667","73404","NA","3167","78869","15812","79371","84789","78663","3172","STROOP_task","3","8203.0","3","1024"
"100","100","2330","2330","#3d3846","xpyriment","legacy","legacy","c","1","undefined","1","q","undefined","3","3","0","0","0","3","0","3","3","3","0","Mon Dec 15 20:41:49 2025","The main experiment item","False","stroop_task.osexp","C:\Users\jobay\Downloads","False","mono","False","25","80","40","no","white","no","yes","768","legacy","3","3","G:\class task\subject-5.csv","xpyriment","8","3","Neonatal Nightingale","4.1.6","0","q","NA","space","q","1119.0","NA","57591","1119","12637","space","2","legacy","1024","2","48000","-16","experiment","5","odd","85771","85067","73404","NA","3167","85269","15812","85771","86890","85062","3172","STROOP_task","4","9322.0","4","1024"
"100","100","2140","2140","#3d3846","xpyriment","legacy","legacy","i","1","undefined","1","q","undefined","4","4","0","0","0","4","0","4","4","4","0","Mon Dec 15 20:41:49 2025","The main experiment item","False","stroop_task.osexp","C:\Users\jobay\Downloads","False","mono","False","25","40","80","no","white","no","yes","768","legacy","4","4","G:\class task\subject-5.csv","xpyriment","8","3","Neonatal Nightingale","4.1.6","0","q","NA","space","q","1382.0","NA","57591","1382","12637","space","2","legacy","1024","2","48000","-16","experiment","5","odd","87886","87182","73404","NA","3167","87384","15812","87886","89268","87178","3172","STROOP_task","5","10704.0","5","1024"
"100","100","1970","1970","#3d3846","xpyriment","legacy","legacy","i","1","undefined","1","q","undefined","5","5","0","0","0","5","0","5","5","5","0","Mon Dec 15 20:41:49 2025","The main experiment item","False","stroop_task.osexp","C:\Users\jobay\Downloads","False","mono","False","25","40","80","no","white","no","yes","768","legacy","5","5","G:\class task\subject-5.csv","xpyriment","7","2","Neonatal Nightingale","4.1.6","0","q","NA","space","q","1116.0","NA","57591","1116","12637","space","2","legacy","1024","2","48000","-16","experiment","5","odd","90192","89488","73404","NA","3167","89690","15812","90192","91308","89484","3172","STROOP_task","6","11820.0","6","1024"
"100","100","1928","1928","#3d3846","xpyriment","legacy","legacy","n","1","undefined","1","p","undefined","6","6","0","0","0","6","0","6","6","6","0","Mon Dec 15 20:41:49 2025","The main experiment item","False","stroop_task.osexp","C:\Users\jobay\Downloads","False","mono","False","25","60","60","no","white","no","yes","768","legacy","6","6","G:\class task\subject-5.csv","xpyriment","8","9","Neonatal Nightingale","4.1.6","0","p","NA","space","p","1678.0","NA","57591","1678","12637","space","2","legacy","1024","2","48000","-16","experiment","5","odd","92276","91572","73404","NA","3167","91774","15812","92277","93955","91568","3172","STROOP_task","7","13498.0","7","1024"
"100","100","1886","1886","#3d3846","xpyriment","legacy","legacy","i","1","undefined","1","q","undefined","7","7","0","0","0","7","0","7","7","7","0","Mon Dec 15 20:41:49 2025","The main experiment item","False","stroop_task.osexp","C:\Users\jobay\Downloads","False","mono","False","25","40","80","no","white","no","yes","768","legacy","7","7","G:\class task\subject-5.csv","xpyriment","9","8","Neonatal Nightingale","4.1.6","0","q","NA","space","q","1590.0","NA","57591","1590","12637","space","2","legacy","1024","2","48000","-16","experiment","5","odd","94908","94204","73404","NA","3167","94406","15812","94908","96499","94199","3172","STROOP_task","8","15088.0","8","1024"
"100","100","1875","1875","#3d3846","xpyriment","legacy","legacy","n","1","undefined","1","q","undefined","8","8","0","0","0","8","0","8","8","8","0","Mon Dec 15 20:41:49 2025","The main experiment item","False","stroop_task.osexp","C:\Users\jobay\Downloads","False","mono","False","25","60","60","no","white","no","yes","768","legacy","8","8","G:\class task\subject-5.csv","xpyriment","7","6","Neonatal Nightingale","4.1.6","0","q","NA","space","q","1788.0","NA","57591","1788","12637","space","2","legacy","1024","2","48000","-16","experiment","5","odd","97478","96774","73404","NA","3167","96976","15812","97478","99266","96770","3172","STROOP_task","9","16876.0","9","1024"
"100","100","2210","2210","#3d3846","xpyriment","legacy","legacy","i","1","undefined","1","p","undefined","9","9","0","0","0","9","0","9","9","9","0","Mon Dec 15 20:41:49 2025","The main experiment item","False","stroop_task.osexp","C:\Users\jobay\Downloads","False","mono","False","25","80","40","no","white","no","yes","768","legacy","9","9","G:\class task\subject-5.csv","xpyriment","1","2","Neonatal Nightingale","4.1.6","0","p","NA","space","p","5226.0","NA","57591","5226","12637","space","2","legacy","1024","2","48000","-16","experiment","5","odd","100252","99548","73404","NA","3167","99750","15812","100252","105479","99543","3172","STROOP_task","10","22102.0","10","1024"
"90","90","2059","2059","#3d3846","xpyriment","legacy","legacy","i","0","undefined","0","p","undefined","10","10","0","0","0","10","0","10","10","10","0","Mon Dec 15 20:41:49 2025","The main experiment item","False","stroop_task.osexp","C:\Users\jobay\Downloads","False","mono","False","25","80","40","no","white","no","yes","768","legacy","10","10","G:\class task\subject-5.csv","xpyriment","2","7","Neonatal Nightingale","4.1.6","0","q","NA","space","q","551.0","NA","57591","551","12637","space","2","legacy","1024","2","48000","-16","experiment","5","odd","106461","105757","73404","NA","3167","105959","15812","106461","107013","105753","3172","STROOP_task","10","22653.0","11","1024"
"91","91","2287","2287","#3d3846","xpyriment","legacy","legacy","n","1","undefined","1","p","undefined","11","11","0","0","0","11","0","11","11","11","0","Mon Dec 15 20:41:49 2025","The main experiment item","False","stroop_task.osexp","C:\Users\jobay\Downloads","False","mono","False","25","60","60","no","white","no","yes","768","legacy","11","11","G:\class task\subject-5.csv","xpyriment","1","6","Neonatal Nightingale","4.1.6","0","p","NA","space","p","4792.0","NA","57591","4792","12637","space","2","legacy","1024","2","48000","-16","experiment","5","odd","107998","107294","73404","NA","3167","107496","15812","107998","112791","107290","3172","STROOP_task","11","27445.0","12","1024"
"92","92","2209","2209","#3d3846","xpyriment","legacy","legacy","n","1","undefined","1","q","undefined","12","12","0","0","0","12","0","12","12","12","0","Mon Dec 15 20:41:49 2025","The main experiment item","False","stroop_task.osexp","C:\Users\jobay\Downloads","False","mono","False","25","60","60","no","white","no","yes","768","legacy","12","12","G:\class task\subject-5.csv","xpyriment","7","6","Neonatal Nightingale","4.1.6","0","q","NA","space","q","1272.0","NA","57591","1272","12637","space","2","legacy","1024","2","48000","-16","experiment","5","odd","113778","113074","73404","NA","3167","113276","15812","113778","115051","113070","3172","STROOP_task","12","28717.0","13","1024"
"92","92","2176","2176","#3d3846","xpyriment","legacy","legacy","n","1","undefined","1","p","undefined","13","13","0","0","0","13","0","13","13","13","0","Mon Dec 15 20:41:49 2025","The main experiment item","False","stroop_task.osexp","C:\Users\jobay\Downloads","False","mono","False","25","60","60","no","white","no","yes","768","legacy","13","13","G:\class task\subject-5.csv","xpyriment","6","7","Neonatal Nightingale","4.1.6","0","p","NA","space","p","1757.0","NA","57591","1757","12637","space","2","legacy","1024","2","48000","-16","experiment","5","odd","116039","115335","73404","NA","3167","115537","15812","116039","117796","115331","3172","STROOP_task","13","30474.0","14","1024"
"93","93","2256","2256","#3d3846","xpyriment","legacy","legacy","c","1","undefined","1","p","undefined","14","14","0","0","0","14","0","14","14","14","0","Mon Dec 15 20:41:49 2025","The main experiment item","False","stroop_task.osexp","C:\Users\jobay\Downloads","False","mono","False","25","40","80","no","white","no","yes","768","legacy","14","14","G:\class task\subject-5.csv","xpyriment","1","2","Neonatal Nightingale","4.1.6","0","p","NA","space","p","3370.0","NA","57591","3370","12637","space","2","legacy","1024","2","48000","-16","experiment","5","odd","118773","118069","73404","NA","3167","118271","15812","118773","122143","118065","3172","STROOP_task","14","33844.0","15","1024"
"93","93","2178","2178","#3d3846","xpyriment","legacy","legacy","c","1","undefined","1","p","undefined","15","15","0","0","0","15","0","15","15","15","0","Mon Dec 15 20:41:49 2025","The main experiment item","False","stroop_task.osexp","C:\Users\jobay\Downloads","False","mono","False","25","40","80","no","white","no","yes","768","legacy","15","15","G:\class task\subject-5.csv","xpyriment","6","7","Neonatal Nightingale","4.1.6","0","p","NA","space","p","1017.0","NA","57591","1017","12637","space","2","legacy","1024","2","48000","-16","experiment","5","odd","123129","122425","73404","NA","3167","122627","15812","123129","124146","122420","3172","STROOP_task","15","34861.0","16","1024"
"94","94","2113","2113","#3d3846","xpyriment","legacy","legacy","i","1","undefined","1","q","undefined","16","16","0","0","0","16","0","16","16","16","0","Mon Dec 15 20:41:49 2025","The main experiment item","False","stroop_task.osexp","C:\Users\jobay\Downloads","False","mono","False","25","40","80","no","white","no","yes","768","legacy","16","16","G:\class task\subject-5.csv","xpyriment","4","3","Neonatal Nightingale","4.1.6","0","q","NA","space","q","1074.0","NA","57591","1074","12637","space","2","legacy","1024","2","48000","-16","experiment","5","odd","125136","124432","73404","NA","3167","124634","15812","125136","126211","124428","3172","STROOP_task","16","35935.0","17","1024"
"94","94","2159","2159","#3d3846","xpyriment","legacy","legacy","c","1","undefined","1","q","undefined","17","17","0","0","0","17","0","17","17","17","0","Mon Dec 15 20:41:49 2025","The main experiment item","False","stroop_task.osexp","C:\Users\jobay\Downloads","False","mono","False","25","80","40","no","white","no","yes","768","legacy","17","17","G:\class task\subject-5.csv","xpyriment","7","6","Neonatal Nightingale","4.1.6","0","q","NA","space","q","2944.0","NA","57591","2944","12637","space","2","legacy","1024","2","48000","-16","experiment","5","odd","127199","126495","73404","NA","3167","126697","15812","127199","130143","126491","3172","STROOP_task","17","38879.0","18","1024"
"94","94","2082","2082","#3d3846","xpyriment","legacy","legacy","i","1","undefined","1","p","undefined","18","18","0","0","0","18","0","18","18","18","0","Mon Dec 15 20:41:49 2025","The main experiment item","False","stroop_task.osexp","C:\Users\jobay\Downloads","False","mono","False","25","80","40","no","white","no","yes","768","legacy","18","18","G:\class task\subject-5.csv","xpyriment","6","7","Neonatal Nightingale","4.1.6","0","p","NA","space","p","680.0","NA","57591","680","12637","space","2","legacy","1024","2","48000","-16","experiment","5","odd","131131","130427","73404","NA","3167","130629","15812","131131","131812","130422","3172","STROOP_task","18","39559.0","19","1024"
"95","95","2011","2011","#3d3846","xpyriment","legacy","legacy","n","1","undefined","1","p","undefined","19","19","0","0","0","19","0","19","19","19","0","Mon Dec 15 20:41:49 2025","The main experiment item","False","stroop_task.osexp","C:\Users\jobay\Downloads","False","mono","False","25","60","60","no","white","no","yes","768","legacy","19","19","G:\class task\subject-5.csv","xpyriment","1","2","Neonatal Nightingale","4.1.6","0","p","NA","space","p","664.0","NA","57591","664","12637","space","2","legacy","1024","2","48000","-16","experiment","5","odd","132816","132112","73404","NA","3167","132314","15812","132816","133481","132108","3172","STROOP_task","19","40223.0","20","1024"
"95","95","1957","1957","#3d3846","xpyriment","legacy","legacy","n","1","undefined","1","q","undefined","20","20","0","0","0","20","0","20","20","20","0","Mon Dec 15 20:41:49 2025","The main experiment item","False","stroop_task.osexp","C:\Users\jobay\Downloads","False","mono","False","25","60","60","no","white","no","yes","768","legacy","20","20","G:\class task\subject-5.csv","xpyriment","9","8","Neonatal Nightingale","4.1.6","0","q","NA","space","q","892.0","NA","57591","892","12637","space","2","legacy","1024","2","48000","-16","experiment","5","odd","134442","133737","73404","NA","3167","133940","15812","134442","135334","133733","3172","STROOP_task","20","41115.0","21","1024"
"95","95","1906","1906","#3d3846","xpyriment","legacy","legacy","n","1","undefined","1","p","undefined","21","21","0","0","0","21","0","21","21","21","0","Mon Dec 15 20:41:49 2025","The main experiment item","False","stroop_task.osexp","C:\Users\jobay\Downloads","False","mono","False","25","60","60","no","white","no","yes","768","legacy","21","21","G:\class task\subject-5.csv","xpyriment","3","4","Neonatal Nightingale","4.1.6","0","p","NA","space","p","837.0","NA","57591","837","12637","space","2","legacy","1024","2","48000","-16","experiment","5","odd","136290","135586","73404","NA","3167","135788","15812","136290","137127","135581","3172","STROOP_task","21","41952.0","22","1024"
"95","95","1893","1893","#3d3846","xpyriment","legacy","legacy","c","1","undefined","1","p","undefined","22","22","0","0","0","22","0","22","22","22","0","Mon Dec 15 20:41:49 2025","The main experiment item","False","stroop_task.osexp","C:\Users\jobay\Downloads","False","mono","False","25","40","80","no","white","no","yes","768","legacy","22","22","G:\class task\subject-5.csv","xpyriment","1","6","Neonatal Nightingale","4.1.6","0","p","NA","space","p","1603.0","NA","57591","1603","12637","space","2","legacy","1024","2","48000","-16","experiment","5","odd","138095","137391","73404","NA","3167","137593","15812","138095","139698","137386","3172","STROOP_task","22","43555.0","23","1024"
"95","95","1857","1857","#3d3846","xpyriment","legacy","legacy","n","1","undefined","1","p","undefined","23","23","0","0","0","23","0","23","23","23","0","Mon Dec 15 20:41:49 2025","The main experiment item","False","stroop_task.osexp","C:\Users\jobay\Downloads","False","mono","False","25","60","60","no","white","no","yes","768","legacy","23","23","G:\class task\subject-5.csv","xpyriment","2","7","Neonatal Nightingale","4.1.6","0","p","NA","space","p","1032.0","NA","57591","1032","12637","space","2","legacy","1024","2","48000","-16","experiment","5","odd","140655","139951","73404","NA","3167","140153","15812","140655","141688","139946","3172","STROOP_task","23","44587.0","24","1024"
"96","96","1801","1801","#3d3846","xpyriment","legacy","legacy","c","1","undefined","1","q","undefined","24","24","0","0","0","24","0","24","24","24","0","Mon Dec 15 20:41:49 2025","The main experiment item","False","stroop_task.osexp","C:\Users\jobay\Downloads","False","mono","False","25","80","40","no","white","no","yes","768","legacy","24","24","G:\class task\subject-5.csv","xpyriment","9","4","Neonatal Nightingale","4.1.6","0","q","NA","space","q","443.0","NA","57591","443","12637","space","2","legacy","1024","2","48000","-16","experiment","5","odd","142654","141950","73404","NA","3167","142152","15812","142654","143098","141945","3172","STROOP_task","24","45030.0","25","1024"
"96","96","1809","1809","#3d3846","xpyriment","legacy","legacy","i","1","undefined","1","q","undefined","25","25","0","0","0","25","0","25","25","25","0","Mon Dec 15 20:41:49 2025","The main experiment item","False","stroop_task.osexp","C:\Users\jobay\Downloads","False","mono","False","25","40","80","no","white","no","yes","768","legacy","25","25","G:\class task\subject-5.csv","xpyriment","9","8","Neonatal Nightingale","4.1.6","0","q","NA","space","q","2007.0","NA","57591","2007","12637","space","2","legacy","1024","2","48000","-16","experiment","5","odd","144076","143372","73404","NA","3167","143574","15812","144076","146084","143368","3172","STROOP_task","25","47037.0","26","1024"
"96","96","1765","1765","#3d3846","xpyriment","legacy","legacy","n","1","undefined","1","q","undefined","26","26","0","0","0","26","0","26","26","26","0","Mon Dec 15 20:41:49 2025","The main experiment item","False","stroop_task.osexp","C:\Users\jobay\Downloads","False","mono","False","25","60","60","no","white","no","yes","768","legacy","26","26","G:\class task\subject-5.csv","xpyriment","9","4","Neonatal Nightingale","4.1.6","0","q","NA","space","q","643.0","NA","57591","643","12637","space","2","legacy","1024","2","48000","-16","experiment","5","odd","147008","146303","73404","NA","3167","146506","15812","147008","147651","146299","3172","STROOP_task","26","47680.0","27","1024"
"96","96","1726","1726","#3d3846","xpyriment","legacy","legacy","i","1","undefined","1","p","undefined","27","27","0","0","0","27","0","27","27","27","0","Mon Dec 15 20:41:49 2025","The main experiment item","False","stroop_task.osexp","C:\Users\jobay\Downloads","False","mono","False","25","80","40","no","white","no","yes","768","legacy","27","27","G:\class task\subject-5.csv","xpyriment","1","6","Neonatal Nightingale","4.1.6","0","p","NA","space","p","670.0","NA","57591","670","12637","space","2","legacy","1024","2","48000","-16","experiment","5","odd","148618","147914","73404","NA","3167","148116","15812","148618","149289","147909","3172","STROOP_task","27","48350.0","28","1024"
"96","96","1691","1691","#3d3846","xpyriment","legacy","legacy","n","1","undefined","1","q","undefined","28","28","0","0","0","28","0","28","28","28","0","Mon Dec 15 20:41:49 2025","The main experiment item","False","stroop_task.osexp","C:\Users\jobay\Downloads","False","mono","False","25","60","60","no","white","no","yes","768","legacy","28","28","G:\class task\subject-5.csv","xpyriment","6","1","Neonatal Nightingale","4.1.6","0","q","NA","space","q","694.0","NA","57591","694","12637","space","2","legacy","1024","2","48000","-16","experiment","5","odd","150256","149552","73404","NA","3167","149754","15812","150256","150951","149547","3172","STROOP_task","28","49044.0","29","1024"
"96","96","1703","1703","#3d3846","xpyriment","legacy","legacy","c","1","undefined","1","p","undefined","29","29","0","0","0","29","0","29","29","29","0","Mon Dec 15 20:41:49 2025","The main experiment item","False","stroop_task.osexp","C:\Users\jobay\Downloads","False","mono","False","25","40","80","no","white","no","yes","768","legacy","29","29","G:\class task\subject-5.csv","xpyriment","4","9","Neonatal Nightingale","4.1.6","0","p","NA","space","p","2048.0","NA","57591","2048","12637","space","2","legacy","1024","2","48000","-16","experiment","5","odd","151932","151228","73404","NA","3167","151430","15812","151932","153981","151224","3172","STROOP_task","29","51092.0","30","1024"
"96","96","1675","1675","#3d3846","xpyriment","legacy","legacy","i","1","undefined","1","q","undefined","30","30","0","0","0","30","0","30","30","30","0","Mon Dec 15 20:41:49 2025","The main experiment item","False","stroop_task.osexp","C:\Users\jobay\Downloads","False","mono","False","25","40","80","no","white","no","yes","768","legacy","30","30","G:\class task\subject-5.csv","xpyriment","9","4","Neonatal Nightingale","4.1.6","0","q","NA","space","q","856.0","NA","57591","856","12637","space","2","legacy","1024","2","48000","-16","experiment","5","odd","154984","154280","73404","NA","3167","154482","15812","154984","155841","154275","3172","STROOP_task","30","51948.0","31","1024"
"96","96","1642","1642","#3d3846","xpyriment","legacy","legacy","c","1","undefined","1","q","undefined","31","31","0","0","0","31","0","31","31","31","0","Mon Dec 15 20:41:49 2025","The main experiment item","False","stroop_task.osexp","C:\Users\jobay\Downloads","False","mono","False","25","80","40","no","white","no","yes","768","legacy","31","31","G:\class task\subject-5.csv","xpyriment","6","1","Neonatal Nightingale","4.1.6","0","q","NA","space","q","599.0","NA","57591","599","12637","space","2","legacy","1024","2","48000","-16","experiment","5","odd","156823","156119","73404","NA","3167","156321","15812","156823","157422","156114","3172","STROOP_task","31","52547.0","32","1024"
"96","96","1617","1617","#3d3846","xpyriment","legacy","legacy","i","1","undefined","1","q","undefined","32","32","0","0","0","32","0","32","32","32","0","Mon Dec 15 20:41:49 2025","The main experiment item","False","stroop_task.osexp","C:\Users\jobay\Downloads","False","mono","False","25","40","80","no","white","no","yes","768","legacy","32","32","G:\class task\subject-5.csv","xpyriment","4","3","Neonatal Nightingale","4.1.6","0","q","NA","space","q","830.0","NA","57591","830","12637","space","2","legacy","1024","2","48000","-16","experiment","5","odd","158415","157711","73404","NA","3167","157913","15812","158415","159245","157707","3172","STROOP_task","32","53377.0","33","1024"
"97","97","1593","1593","#3d3846","xpyriment","legacy","legacy","c","1","undefined","1","q","undefined","33","33","0","0","0","33","0","33","33","33","0","Mon Dec 15 20:41:49 2025","The main experiment item","False","stroop_task.osexp","C:\Users\jobay\Downloads","False","mono","False","25","80","40","no","white","no","yes","768","legacy","33","33","G:\class task\subject-5.csv","xpyriment","9","8","Neonatal Nightingale","4.1.6","0","q","NA","space","q","796.0","NA","57591","796","12637","space","2","legacy","1024","2","48000","-16","experiment","5","odd","160229","159524","73404","NA","3167","159727","15812","160229","161026","159520","3172","STROOP_task","33","54173.0","34","1024"
"97","97","1559","1559","#3d3846","xpyriment","legacy","legacy","c","1","undefined","1","q","undefined","34","34","0","0","0","34","0","34","34","34","0","Mon Dec 15 20:41:49 2025","The main experiment item","False","stroop_task.osexp","C:\Users\jobay\Downloads","False","mono","False","25","80","40","no","white","no","yes","768","legacy","34","34","G:\class task\subject-5.csv","xpyriment","2","1","Neonatal Nightingale","4.1.6","0","q","NA","space","q","413.0","NA","57591","413","12637","space","2","legacy","1024","2","48000","-16","experiment","5","odd","162020","161316","73404","NA","3167","161518","15812","162020","162434","161311","3172","STROOP_task","34","54586.0","35","1024"
"97","97","1530","1530","#3d3846","xpyriment","legacy","legacy","c","1","undefined","1","p","undefined","35","35","0","0","0","35","0","35","35","35","0","Mon Dec 15 20:41:49 2025","The main experiment item","False","stroop_task.osexp","C:\Users\jobay\Downloads","False","mono","False","25","40","80","no","white","no","yes","768","legacy","35","35","G:\class task\subject-5.csv","xpyriment","1","2","Neonatal Nightingale","4.1.6","0","p","NA","space","p","504.0","NA","57591","504","12637","space","2","legacy","1024","2","48000","-16","experiment","5","odd","163457","162752","73404","NA","3167","162955","15812","163457","163961","162748","3172","STROOP_task","35","55090.0","36","1024"
"97","97","1501","1501","#3d3846","xpyriment","legacy","legacy","i","1","undefined","1","q","undefined","36","36","0","0","0","36","0","36","36","36","0","Mon Dec 15 20:41:49 2025","The main experiment item","False","stroop_task.osexp","C:\Users\jobay\Downloads","False","mono","False","25","40","80","no","white","no","yes","768","legacy","36","36","G:\class task\subject-5.csv","xpyriment","8","3","Neonatal Nightingale","4.1.6","0","q","NA","space","q","481.0","NA","57591","481","12637","space","2","legacy","1024","2","48000","-16","experiment","5","odd","164911","164207","73404","NA","3167","164409","15812","164911","165392","164203","3172","STROOP_task","36","55571.0","37","1024"
"97","97","1491","1491","#3d3846","xpyriment","legacy","legacy","i","1","undefined","1","p","undefined","37","37","0","0","0","37","0","37","37","37","0","Mon Dec 15 20:41:49 2025","The main experiment item","False","stroop_task.osexp","C:\Users\jobay\Downloads","False","mono","False","25","80","40","no","white","no","yes","768","legacy","37","37","G:\class task\subject-5.csv","xpyriment","6","7","Neonatal Nightingale","4.1.6","0","p","NA","space","p","1102.0","NA","57591","1102","12637","space","2","legacy","1024","2","48000","-16","experiment","5","odd","166367","165663","73404","NA","3167","165865","15812","166367","167469","165659","3172","STROOP_task","37","56673.0","38","1024"
"97","97","1466","1466","#3d3846","xpyriment","legacy","legacy","n","1","undefined","1","q","undefined","38","38","0","0","0","38","0","38","38","38","0","Mon Dec 15 20:41:49 2025","The main experiment item","False","stroop_task.osexp","C:\Users\jobay\Downloads","False","mono","False","25","60","60","no","white","no","yes","768","legacy","38","38","G:\class task\subject-5.csv","xpyriment","2","1","Neonatal Nightingale","4.1.6","0","q","NA","space","q","507.0","NA","57591","507","12637","space","2","legacy","1024","2","48000","-16","experiment","5","odd","168413","167709","73404","NA","3167","167911","15812","168413","168920","167704","3172","STROOP_task","38","57180.0","39","1024"
"97","97","1447","1447","#3d3846","xpyriment","legacy","legacy","i","1","undefined","1","q","undefined","39","39","0","0","0","39","0","39","39","39","0","Mon Dec 15 20:41:49 2025","The main experiment item","False","stroop_task.osexp","C:\Users\jobay\Downloads","False","mono","False","25","40","80","no","white","no","yes","768","legacy","39","39","G:\class task\subject-5.csv","xpyriment","7","6","Neonatal Nightingale","4.1.6","0","q","NA","space","q","716.0","NA","57591","716","12637","space","2","legacy","1024","2","48000","-16","experiment","5","odd","169886","169182","73404","NA","3167","169384","15812","169887","170603","169178","3172","STROOP_task","39","57896.0","40","1024"
"97","97","1429","1429","#3d3846","xpyriment","legacy","legacy","i","1","undefined","1","q","undefined","40","40","0","0","0","40","0","40","40","40","0","Mon Dec 15 20:41:49 2025","The main experiment item","False","stroop_task.osexp","C:\Users\jobay\Downloads","False","mono","False","25","40","80","no","white","no","yes","768","legacy","40","40","G:\class task\subject-5.csv","xpyriment","9","4","Neonatal Nightingale","4.1.6","0","q","NA","space","q","693.0","NA","57591","693","12637","space","2","legacy","1024","2","48000","-16","experiment","5","odd","171559","170855","73404","NA","3167","171057","15812","171559","172253","170850","3172","STROOP_task","40","58589.0","41","1024"
"97","97","1414","1414","#3d3846","xpyriment","legacy","legacy","n","1","undefined","1","q","undefined","41","41","0","0","0","41","0","41","41","41","0","Mon Dec 15 20:41:49 2025","The main experiment item","False","stroop_task.osexp","C:\Users\jobay\Downloads","False","mono","False","25","60","60","no","white","no","yes","768","legacy","41","41","G:\class task\subject-5.csv","xpyriment","8","3","Neonatal Nightingale","4.1.6","0","q","NA","space","q","818.0","NA","57591","818","12637","space","2","legacy","1024","2","48000","-16","experiment","5","odd","173225","172521","73404","NA","3167","172723","15812","173225","174044","172516","3172","STROOP_task","41","59407.0","42","1024"
"97","97","1395","1395","#3d3846","xpyriment","legacy","legacy","i","1","undefined","1","p","undefined","42","42","0","0","0","42","0","42","42","42","0","Mon Dec 15 20:41:49 2025","The main experiment item","False","stroop_task.osexp","C:\Users\jobay\Downloads","False","mono","False","25","80","40","no","white","no","yes","768","legacy","42","42","G:\class task\subject-5.csv","xpyriment","1","2","Neonatal Nightingale","4.1.6","0","p","NA","space","p","592.0","NA","57591","592","12637","space","2","legacy","1024","2","48000","-16","experiment","5","odd","175014","174310","73404","NA","3167","174512","15812","175014","175607","174305","3172","STROOP_task","42","59999.0","43","1024"
"97","97","1386","1386","#3d3846","xpyriment","legacy","legacy","i","1","undefined","1","p","undefined","43","43","0","0","0","43","0","43","43","43","0","Mon Dec 15 20:41:49 2025","The main experiment item","False","stroop_task.osexp","C:\Users\jobay\Downloads","False","mono","False","25","80","40","no","white","no","yes","768","legacy","43","43","G:\class task\subject-5.csv","xpyriment","4","9","Neonatal Nightingale","4.1.6","0","p","NA","space","p","1008.0","NA","57591","1008","12637","space","2","legacy","1024","2","48000","-16","experiment","5","odd","176573","175869","73404","NA","3167","176071","15812","176573","177582","175864","3172","STROOP_task","43","61007.0","44","1024"
"95","95","1365","1365","#3d3846","xpyriment","legacy","legacy","n","0","undefined","0","p","undefined","44","44","0","0","0","44","0","44","44","44","0","Mon Dec 15 20:41:49 2025","The main experiment item","False","stroop_task.osexp","C:\Users\jobay\Downloads","False","mono","False","25","60","60","no","white","no","yes","768","legacy","44","44","G:\class task\subject-5.csv","xpyriment","8","9","Neonatal Nightingale","4.1.6","0","q","NA","space","q","436.0","NA","57591","436","12637","space","2","legacy","1024","2","48000","-16","experiment","5","odd","178549","177845","73404","NA","3167","178047","15812","178549","178986","177840","3172","STROOP_task","43","61443.0","45","1024"
"95","95","1353","1353","#3d3846","xpyriment","legacy","legacy","c","1","undefined","1","p","undefined","45","45","0","0","0","45","0","45","45","45","0","Mon Dec 15 20:41:49 2025","The main experiment item","False","stroop_task.osexp","C:\Users\jobay\Downloads","False","mono","False","25","40","80","no","white","no","yes","768","legacy","45","45","G:\class task\subject-5.csv","xpyriment","4","9","Neonatal Nightingale","4.1.6","0","p","NA","space","p","826.0","NA","57591","826","12637","space","2","legacy","1024","2","48000","-16","experiment","5","odd","179956","179252","73404","NA","3167","179454","15812","179956","180783","179247","3172","STROOP_task","44","62269.0","46","1024"
"95","95","1346","1346","#3d3846","xpyriment","legacy","legacy","c","1","undefined","1","q","undefined","46","46","0","0","0","46","0","46","46","46","0","Mon Dec 15 20:41:49 2025","The main experiment item","False","stroop_task.osexp","C:\Users\jobay\Downloads","False","mono","False","25","80","40","no","white","no","yes","768","legacy","46","46","G:\class task\subject-5.csv","xpyriment","4","3","Neonatal Nightingale","4.1.6","0","q","NA","space","q","998.0","NA","57591","998","12637","space","2","legacy","1024","2","48000","-16","experiment","5","odd","181737","181033","73404","NA","3167","181235","15812","181737","182736","181029","3172","STROOP_task","45","63267.0","47","1024"
"93","93","1341","1341","#3d3846","xpyriment","legacy","legacy","n","0","undefined","0","q","undefined","47","47","0","0","0","47","0","47","47","47","0","Mon Dec 15 20:41:49 2025","The main experiment item","False","stroop_task.osexp","C:\Users\jobay\Downloads","False","mono","False","25","60","60","no","white","no","yes","768","legacy","47","47","G:\class task\subject-5.csv","xpyriment","7","6","Neonatal Nightingale","4.1.6","0","p","NA","space","p","1142.0","NA","57591","1142","12637","space","2","legacy","1024","2","48000","-16","experiment","5","odd","183726","183022","73404","NA","3167","183224","15812","183726","184869","183018","3172","STROOP_task","45","64409.0","48","1024"
"93","93","1331","1331","#3d3846","xpyriment","legacy","legacy","n","1","undefined","1","p","undefined","48","48","0","0","0","48","0","48","48","48","0","Mon Dec 15 20:41:49 2025","The main experiment item","False","stroop_task.osexp","C:\Users\jobay\Downloads","False","mono","False","25","60","60","no","white","no","yes","768","legacy","48","48","G:\class task\subject-5.csv","xpyriment","4","9","Neonatal Nightingale","4.1.6","0","p","NA","space","p","850.0","NA","57591","850","12637","space","2","legacy","1024","2","48000","-16","experiment","5","odd","185860","185156","73404","NA","3167","185358","15812","185860","186710","185151","3172","STROOP_task","46","65259.0","49","1024"
"94","94","1316","1316","#3d3846","xpyriment","legacy","legacy","c","1","undefined","1","q","undefined","49","49","0","0","0","49","0","49","49","49","0","Mon Dec 15 20:41:49 2025","The main experiment item","False","stroop_task.osexp","C:\Users\jobay\Downloads","False","mono","False","25","80","40","no","white","no","yes","768","legacy","49","49","G:\class task\subject-5.csv","xpyriment","7","6","Neonatal Nightingale","4.1.6","0","q","NA","space","q","547.0","NA","57591","547","12637","space","2","legacy","1024","2","48000","-16","experiment","5","odd","187683","186979","73404","NA","3167","187181","15812","187683","188231","186975","3172","STROOP_task","47","65806.0","50","1024"
"94","94","1306","1306","#3d3846","xpyriment","legacy","legacy","i","1","undefined","1","q","undefined","50","50","0","0","0","50","0","50","50","50","0","Mon Dec 15 20:41:49 2025","The main experiment item","False","stroop_task.osexp","C:\Users\jobay\Downloads","False","mono","False","25","40","80","no","white","no","yes","768","legacy","50","50","G:\class task\subject-5.csv","xpyriment","7","2","Neonatal Nightingale","4.1.6","0","q","NA","space","q","815.0","NA","57591","815","12637","space","2","legacy","1024","2","48000","-16","experiment","5","odd","189166","188462","73404","NA","3167","188664","15812","189166","189982","188458","3172","STROOP_task","48","66621.0","51","1024"
"94","94","1308","1308","#3d3846","xpyriment","legacy","legacy","c","1","undefined","1","p","undefined","51","51","0","0","0","51","0","51","51","51","0","Mon Dec 15 20:41:49 2025","The main experiment item","False","stroop_task.osexp","C:\Users\jobay\Downloads","False","mono","False","25","40","80","no","white","no","yes","768","legacy","51","51","G:\class task\subject-5.csv","xpyriment","1","6","Neonatal Nightingale","4.1.6","0","p","NA","space","p","1399.0","NA","57591","1399","12637","space","2","legacy","1024","2","48000","-16","experiment","5","odd","190964","190260","73404","NA","3167","190462","15812","190964","192363","190255","3172","STROOP_task","49","68020.0","52","1024"
"94","94","1303","1303","#3d3846","xpyriment","legacy","legacy","n","1","undefined","1","p","undefined","52","52","0","0","0","52","0","52","52","52","0","Mon Dec 15 20:41:49 2025","The main experiment item","False","stroop_task.osexp","C:\Users\jobay\Downloads","False","mono","False","25","60","60","no","white","no","yes","768","legacy","52","52","G:\class task\subject-5.csv","xpyriment","1","2","Neonatal Nightingale","4.1.6","0","p","NA","space","p","1088.0","NA","57591","1088","12637","space","2","legacy","1024","2","48000","-16","experiment","5","odd","193356","192652","73404","NA","3167","192854","15812","193356","194444","192648","3172","STROOP_task","50","69108.0","53","1024"
"94","94","1292","1292","#3d3846","xpyriment","legacy","legacy","n","1","undefined","1","q","undefined","53","53","0","0","0","53","0","53","53","53","0","Mon Dec 15 20:41:49 2025","The main experiment item","False","stroop_task.osexp","C:\Users\jobay\Downloads","False","mono","False","25","60","60","no","white","no","yes","768","legacy","53","53","G:\class task\subject-5.csv","xpyriment","6","1","Neonatal Nightingale","4.1.6","0","q","NA","space","q","665.0","NA","57591","665","12637","space","2","legacy","1024","2","48000","-16","experiment","5","odd","195453","194749","73404","NA","3167","194951","15812","195453","196119","194743","3172","STROOP_task","51","69773.0","54","1024"
"94","94","1283","1283","#3d3846","xpyriment","legacy","legacy","n","1","undefined","1","q","undefined","54","54","0","0","0","54","0","54","54","54","0","Mon Dec 15 20:41:49 2025","The main experiment item","False","stroop_task.osexp","C:\Users\jobay\Downloads","False","mono","False","25","60","60","no","white","no","yes","768","legacy","54","54","G:\class task\subject-5.csv","xpyriment","7","2","Neonatal Nightingale","4.1.6","0","q","NA","space","q","808.0","NA","57591","808","12637","space","2","legacy","1024","2","48000","-16","experiment","5","odd","197086","196382","73404","NA","3167","196584","15812","197086","197895","196377","3172","STROOP_task","52","70581.0","55","1024"
"94","94","1275","1275","#3d3846","xpyriment","legacy","legacy","n","1","undefined","1","p","undefined","55","55","0","0","0","55","0","55","55","55","0","Mon Dec 15 20:41:49 2025","The main experiment item","False","stroop_task.osexp","C:\Users\jobay\Downloads","False","mono","False","25","60","60","no","white","no","yes","768","legacy","55","55","G:\class task\subject-5.csv","xpyriment","3","4","Neonatal Nightingale","4.1.6","0","p","NA","space","p","822.0","NA","57591","822","12637","space","2","legacy","1024","2","48000","-16","experiment","5","odd","198857","198153","73404","NA","3167","198355","15812","198857","199680","198149","3172","STROOP_task","53","71403.0","56","1024"
"94","94","1267","1267","#3d3846","xpyriment","legacy","legacy","i","1","undefined","1","p","undefined","56","56","0","0","0","56","0","56","56","56","0","Mon Dec 15 20:41:49 2025","The main experiment item","False","stroop_task.osexp","C:\Users\jobay\Downloads","False","mono","False","25","80","40","no","white","no","yes","768","legacy","56","56","G:\class task\subject-5.csv","xpyriment","4","9","Neonatal Nightingale","4.1.6","0","p","NA","space","p","837.0","NA","57591","837","12637","space","2","legacy","1024","2","48000","-16","experiment","5","odd","200585","199881","73404","NA","3167","200083","15812","200585","201423","199876","3172","STROOP_task","54","72240.0","57","1024"
"94","94","1259","1259","#3d3846","xpyriment","legacy","legacy","n","1","undefined","1","p","undefined","57","57","0","0","0","57","0","57","57","57","0","Mon Dec 15 20:41:49 2025","The main experiment item","False","stroop_task.osexp","C:\Users\jobay\Downloads","False","mono","False","25","60","60","no","white","no","yes","768","legacy","57","57","G:\class task\subject-5.csv","xpyriment","3","8","Neonatal Nightingale","4.1.6","0","p","NA","space","p","793.0","NA","57591","793","12637","space","2","legacy","1024","2","48000","-16","experiment","5","odd","202384","201680","73404","NA","3167","201882","15812","202384","203177","201674","3172","STROOP_task","55","73033.0","58","1024"
"94","94","1251","1251","#3d3846","xpyriment","legacy","legacy","i","1","undefined","1","p","undefined","58","58","0","0","0","58","0","58","58","58","0","Mon Dec 15 20:41:49 2025","The main experiment item","False","stroop_task.osexp","C:\Users\jobay\Downloads","False","mono","False","25","80","40","no","white","no","yes","768","legacy","58","58","G:\class task\subject-5.csv","xpyriment","8","9","Neonatal Nightingale","4.1.6","0","p","NA","space","p","824.0","NA","57591","824","12637","space","2","legacy","1024","2","48000","-16","experiment","5","odd","204151","203447","73404","NA","3167","203649","15812","204151","204976","203442","3172","STROOP_task","56","73857.0","59","1024"
"93","93","1246","1246","#3d3846","xpyriment","legacy","legacy","c","0","undefined","0","q","undefined","59","59","0","0","0","59","0","59","59","59","0","Mon Dec 15 20:41:49 2025","The main experiment item","False","stroop_task.osexp","C:\Users\jobay\Downloads","False","mono","False","25","80","40","no","white","no","yes","768","legacy","59","59","G:\class task\subject-5.csv","xpyriment","9","8","Neonatal Nightingale","4.1.6","0","p","NA","space","p","912.0","NA","57591","912","12637","space","2","legacy","1024","2","48000","-16","experiment","5","odd","205940","205234","73404","NA","3167","205436","15812","205940","206852","205230","3172","STROOP_task","56","74769.0","60","1024"
"93","93","1236","1236","#3d3846","xpyriment","legacy","legacy","i","1","undefined","1","p","undefined","60","60","0","0","0","60","0","60","60","60","0","Mon Dec 15 20:41:49 2025","The main experiment item","False","stroop_task.osexp","C:\Users\jobay\Downloads","False","mono","False","25","80","40","no","white","no","yes","768","legacy","60","60","G:\class task\subject-5.csv","xpyriment","6","7","Neonatal Nightingale","4.1.6","0","p","NA","space","p","678.0","NA","57591","678","12637","space","2","legacy","1024","2","48000","-16","experiment","5","odd","207811","207107","73404","NA","3167","207309","15812","207811","208490","207103","3172","STROOP_task","57","75447.0","61","1024"
"93","93","1231","1231","#3d3846","xpyriment","legacy","legacy","c","1","undefined","1","q","undefined","61","61","0","0","0","61","0","61","61","61","0","Mon Dec 15 20:41:49 2025","The main experiment item","False","stroop_task.osexp","C:\Users\jobay\Downloads","False","mono","False","25","80","40","no","white","no","yes","768","legacy","61","61","G:\class task\subject-5.csv","xpyriment","7","6","Neonatal Nightingale","4.1.6","0","q","NA","space","q","935.0","NA","57591","935","12637","space","2","legacy","1024","2","48000","-16","experiment","5","odd","209451","208747","73404","NA","3167","208949","15812","209451","210387","208743","3172","STROOP_task","58","76382.0","62","1024"
"93","93","1225","1225","#3d3846","xpyriment","legacy","legacy","n","1","undefined","1","p","undefined","62","62","0","0","0","62","0","62","62","62","0","Mon Dec 15 20:41:49 2025","The main experiment item","False","stroop_task.osexp","C:\Users\jobay\Downloads","False","mono","False","25","60","60","no","white","no","yes","768","legacy","62","62","G:\class task\subject-5.csv","xpyriment","3","4","Neonatal Nightingale","4.1.6","0","p","NA","space","p","837.0","NA","57591","837","12637","space","2","legacy","1024","2","48000","-16","experiment","5","odd","211339","210635","73404","NA","3167","210837","15812","211339","212177","210631","3172","STROOP_task","59","77219.0","63","1024"
"93","93","1218","1218","#3d3846","xpyriment","legacy","legacy","i","1","undefined","1","q","undefined","63","63","0","0","0","63","0","63","63","63","0","Mon Dec 15 20:41:49 2025","The main experiment item","False","stroop_task.osexp","C:\Users\jobay\Downloads","False","mono","False","25","40","80","no","white","no","yes","768","legacy","63","63","G:\class task\subject-5.csv","xpyriment","2","1","Neonatal Nightingale","4.1.6","0","q","NA","space","q","792.0","NA","57591","792","12637","space","2","legacy","1024","2","48000","-16","experiment","5","odd","213176","212472","73404","NA","3167","212674","15812","213176","213968","212467","3172","STROOP_task","60","78011.0","64","1024"
"93","93","1216","1216","#3d3846","xpyriment","legacy","legacy","c","1","undefined","1","p","undefined","64","64","0","0","0","64","0","64","64","64","0","Mon Dec 15 20:41:49 2025","The main experiment item","False","stroop_task.osexp","C:\Users\jobay\Downloads","False","mono","False","25","40","80","no","white","no","yes","768","legacy","64","64","G:\class task\subject-5.csv","xpyriment","1","6","Neonatal Nightingale","4.1.6","0","p","NA","space","p","1062.0","NA","57591","1062","12637","space","2","legacy","1024","2","48000","-16","experiment","5","odd","214959","214255","73404","NA","3167","214457","15812","214959","216022","214250","3172","STROOP_task","61","79073.0","65","1024"
"92","92","1208","1208","#3d3846","xpyriment","legacy","legacy","i","0","undefined","0","q","undefined","65","65","0","0","0","65","0","65","65","65","0","Mon Dec 15 20:41:49 2025","The main experiment item","False","stroop_task.osexp","C:\Users\jobay\Downloads","False","mono","False","25","40","80","no","white","no","yes","768","legacy","65","65","G:\class task\subject-5.csv","xpyriment","7","6","Neonatal Nightingale","4.1.6","0","p","NA","space","p","660.0","NA","57591","660","12637","space","2","legacy","1024","2","48000","-16","experiment","5","odd","216995","216291","73404","NA","3167","216493","15812","216995","217655","216287","3172","STROOP_task","61","79733.0","66","1024"
"92","92","1198","1198","#3d3846","xpyriment","legacy","legacy","c","1","undefined","1","q","undefined","66","66","0","0","0","66","0","66","66","66","0","Mon Dec 15 20:41:49 2025","The main experiment item","False","stroop_task.osexp","C:\Users\jobay\Downloads","False","mono","False","25","80","40","no","white","no","yes","768","legacy","66","66","G:\class task\subject-5.csv","xpyriment","7","2","Neonatal Nightingale","4.1.6","0","q","NA","space","q","559.0","NA","57591","559","12637","space","2","legacy","1024","2","48000","-16","experiment","5","odd","218631","217927","73404","NA","3167","218129","15812","218631","219190","217922","3172","STROOP_task","62","80292.0","67","1024"
"92","92","1193","1193","#3d3846","xpyriment","legacy","legacy","n","1","undefined","1","p","undefined","67","67","0","0","0","67","0","67","67","67","0","Mon Dec 15 20:41:49 2025","The main experiment item","False","stroop_task.osexp","C:\Users\jobay\Downloads","False","mono","False","25","60","60","no","white","no","yes","768","legacy","67","67","G:\class task\subject-5.csv","xpyriment","1","6","Neonatal Nightingale","4.1.6","0","p","NA","space","p","862.0","NA","57591","862","12637","space","2","legacy","1024","2","48000","-16","experiment","5","odd","220178","219474","73404","NA","3167","219676","15812","220178","221041","219470","3172","STROOP_task","63","81154.0","68","1024"
"92","92","1194","1194","#3d3846","xpyriment","legacy","legacy","c","1","undefined","1","p","undefined","68","68","0","0","0","68","0","68","68","68","0","Mon Dec 15 20:41:49 2025","The main experiment item","False","stroop_task.osexp","C:\Users\jobay\Downloads","False","mono","False","25","40","80","no","white","no","yes","768","legacy","68","68","G:\class task\subject-5.csv","xpyriment","1","2","Neonatal Nightingale","4.1.6","0","p","NA","space","p","1249.0","NA","57591","1249","12637","space","2","legacy","1024","2","48000","-16","experiment","5","odd","222025","221321","73404","NA","3167","221523","15812","222025","223275","221316","3172","STROOP_task","64","82403.0","69","1024"
"92","92","1196","1196","#3d3846","xpyriment","legacy","legacy","n","1","undefined","1","p","undefined","69","69","0","0","0","69","0","69","69","69","0","Mon Dec 15 20:41:49 2025","The main experiment item","False","stroop_task.osexp","C:\Users\jobay\Downloads","False","mono","False","25","60","60","no","white","no","yes","768","legacy","69","69","G:\class task\subject-5.csv","xpyriment","3","4","Neonatal Nightingale","4.1.6","0","p","NA","space","p","1362.0","NA","57591","1362","12637","space","2","legacy","1024","2","48000","-16","experiment","5","odd","224262","223558","73404","NA","3167","223760","15812","224262","225624","223554","3172","STROOP_task","65","83765.0","70","1024"
"92","92","1192","1192","#3d3846","xpyriment","legacy","legacy","n","1","undefined","1","q","undefined","70","70","0","0","0","70","0","70","70","70","0","Mon Dec 15 20:41:49 2025","The main experiment item","False","stroop_task.osexp","C:\Users\jobay\Downloads","False","mono","False","25","60","60","no","white","no","yes","768","legacy","70","70","G:\class task\subject-5.csv","xpyriment","7","2","Neonatal Nightingale","4.1.6","0","q","NA","space","q","871.0","NA","57591","871","12637","space","2","legacy","1024","2","48000","-16","experiment","5","odd","226638","225934","73404","NA","3167","226136","15812","226638","227510","225929","3172","STROOP_task","66","84636.0","71","1024"
"93","93","1205","1205","#3d3846","xpyriment","legacy","legacy","i","1","undefined","1","q","undefined","71","71","0","0","0","71","0","71","71","71","0","Mon Dec 15 20:41:49 2025","The main experiment item","False","stroop_task.osexp","C:\Users\jobay\Downloads","False","mono","False","25","40","80","no","white","no","yes","768","legacy","71","71","G:\class task\subject-5.csv","xpyriment","9","4","Neonatal Nightingale","4.1.6","0","q","NA","space","q","2151.0","NA","57591","2151","12637","space","2","legacy","1024","2","48000","-16","experiment","5","odd","228474","227770","73404","NA","3167","227972","15812","228474","230625","227766","3172","STROOP_task","67","86787.0","72","1024"
"93","93","1203","1203","#3d3846","xpyriment","legacy","legacy","c","1","undefined","1","q","undefined","72","72","0","0","0","72","0","72","72","72","0","Mon Dec 15 20:41:49 2025","The main experiment item","False","stroop_task.osexp","C:\Users\jobay\Downloads","False","mono","False","25","80","40","no","white","no","yes","768","legacy","72","72","G:\class task\subject-5.csv","xpyriment","4","3","Neonatal Nightingale","4.1.6","0","q","NA","space","q","1042.0","NA","57591","1042","12637","space","2","legacy","1024","2","48000","-16","experiment","5","odd","231584","230880","73404","NA","3167","231082","15812","231584","232627","230876","3172","STROOP_task","68","87829.0","73","1024"
"93","93","1199","1199","#3d3846","xpyriment","legacy","legacy","i","1","undefined","1","q","undefined","73","73","0","0","0","73","0","73","73","73","0","Mon Dec 15 20:41:49 2025","The main experiment item","False","stroop_task.osexp","C:\Users\jobay\Downloads","False","mono","False","25","40","80","no","white","no","yes","768","legacy","73","73","G:\class task\subject-5.csv","xpyriment","9","8","Neonatal Nightingale","4.1.6","0","q","NA","space","q","951.0","NA","57591","951","12637","space","2","legacy","1024","2","48000","-16","experiment","5","odd","233589","232884","73404","NA","3167","233087","15812","233589","234541","232879","3172","STROOP_task","69","88780.0","74","1024"
"93","93","1193","1193","#3d3846","xpyriment","legacy","legacy","n","1","undefined","1","p","undefined","74","74","0","0","0","74","0","74","74","74","0","Mon Dec 15 20:41:49 2025","The main experiment item","False","stroop_task.osexp","C:\Users\jobay\Downloads","False","mono","False","25","60","60","no","white","no","yes","768","legacy","74","74","G:\class task\subject-5.csv","xpyriment","4","9","Neonatal Nightingale","4.1.6","0","p","NA","space","p","758.0","NA","57591","758","12637","space","2","legacy","1024","2","48000","-16","experiment","5","odd","235495","234791","73404","NA","3167","234993","15812","235495","236254","234786","3172","STROOP_task","70","89538.0","75","1024"
"93","93","1186","1186","#3d3846","xpyriment","legacy","legacy","c","1","undefined","1","p","undefined","75","75","0","0","0","75","0","75","75","75","0","Mon Dec 15 20:41:49 2025","The main experiment item","False","stroop_task.osexp","C:\Users\jobay\Downloads","False","mono","False","25","40","80","no","white","no","yes","768","legacy","75","75","G:\class task\subject-5.csv","xpyriment","4","9","Neonatal Nightingale","4.1.6","0","p","NA","space","p","603.0","NA","57591","603","12637","space","2","legacy","1024","2","48000","-16","experiment","5","odd","237213","236507","73404","NA","3167","236709","15812","237213","237817","236503","3172","STROOP_task","71","90141.0","76","1024"
"93","93","1177","1177","#3d3846","xpyriment","legacy","legacy","c","1","undefined","1","q","undefined","76","76","0","0","0","76","0","76","76","76","0","Mon Dec 15 20:41:49 2025","The main experiment item","False","stroop_task.osexp","C:\Users\jobay\Downloads","False","mono","False","25","80","40","no","white","no","yes","768","legacy","76","76","G:\class task\subject-5.csv","xpyriment","6","1","Neonatal Nightingale","4.1.6","0","q","NA","space","q","540.0","NA","57591","540","12637","space","2","legacy","1024","2","48000","-16","experiment","5","odd","238783","238079","73404","NA","3167","238281","15812","238783","239324","238075","3172","STROOP_task","72","90681.0","77","1024"
"93","93","1174","1174","#3d3846","xpyriment","legacy","legacy","i","1","undefined","1","p","undefined","77","77","0","0","0","77","0","77","77","77","0","Mon Dec 15 20:41:49 2025","The main experiment item","False","stroop_task.osexp","C:\Users\jobay\Downloads","False","mono","False","25","80","40","no","white","no","yes","768","legacy","77","77","G:\class task\subject-5.csv","xpyriment","4","9","Neonatal Nightingale","4.1.6","0","p","NA","space","p","891.0","NA","57591","891","12637","space","2","legacy","1024","2","48000","-16","experiment","5","odd","240298","239594","73404","NA","3167","239796","15812","240298","241190","239590","3172","STROOP_task","73","91572.0","78","1024"
"93","93","1172","1172","#3d3846","xpyriment","legacy","legacy","n","1","undefined","1","p","undefined","78","78","0","0","0","78","0","78","78","78","0","Mon Dec 15 20:41:49 2025","The main experiment item","False","stroop_task.osexp","C:\Users\jobay\Downloads","False","mono","False","25","60","60","no","white","no","yes","768","legacy","78","78","G:\class task\subject-5.csv","xpyriment","1","2","Neonatal Nightingale","4.1.6","0","p","NA","space","p","1090.0","NA","57591","1090","12637","space","2","legacy","1024","2","48000","-16","experiment","5","odd","242149","241445","73404","NA","3167","241647","15812","242149","243240","241441","3172","STROOP_task","74","92662.0","79","1024"
"93","93","1191","1191","#3d3846","xpyriment","legacy","legacy","i","1","undefined","1","p","undefined","79","79","0","0","0","79","0","79","79","79","0","Mon Dec 15 20:41:49 2025","The main experiment item","False","stroop_task.osexp","C:\Users\jobay\Downloads","False","mono","False","25","80","40","no","white","no","yes","768","legacy","79","79","G:\class task\subject-5.csv","xpyriment","3","8","Neonatal Nightingale","4.1.6","0","p","NA","space","p","2661.0","NA","57591","2661","12637","space","2","legacy","1024","2","48000","-16","experiment","5","odd","244211","243507","73404","NA","3167","243709","15812","244211","246872","243503","3172","STROOP_task","75","95323.0","80","1024"
"93","93","1183","1183","#3d3846","xpyriment","legacy","legacy","c","1","undefined","1","q","undefined","80","80","0","0","0","80","0","80","80","80","0","Mon Dec 15 20:41:49 2025","The main experiment item","False","stroop_task.osexp","C:\Users\jobay\Downloads","False","mono","False","25","80","40","no","white","no","yes","768","legacy","80","80","G:\class task\subject-5.csv","xpyriment","2","1","Neonatal Nightingale","4.1.6","0","q","NA","space","q","531.0","NA","57591","531","12637","space","2","legacy","1024","2","48000","-16","experiment","5","odd","247863","247159","73404","NA","3167","247361","15812","247863","248395","247154","3172","STROOP_task","76","95854.0","81","1024"
"93","93","1175","1175","#3d3846","xpyriment","legacy","legacy","i","1","undefined","1","q","undefined","81","81","0","0","0","81","0","81","81","81","0","Mon Dec 15 20:41:49 2025","The main experiment item","False","stroop_task.osexp","C:\Users\jobay\Downloads","False","mono","False","25","40","80","no","white","no","yes","768","legacy","81","81","G:\class task\subject-5.csv","xpyriment","2","1","Neonatal Nightingale","4.1.6","0","q","NA","space","q","542.0","NA","57591","542","12637","space","2","legacy","1024","2","48000","-16","experiment","5","odd","249383","248678","73404","NA","3167","248881","15812","249383","249925","248674","3172","STROOP_task","77","96396.0","82","1024"
"93","93","1178","1178","#3d3846","xpyriment","legacy","legacy","c","1","undefined","1","p","undefined","82","82","0","0","0","82","0","82","82","82","0","Mon Dec 15 20:41:49 2025","The main experiment item","False","stroop_task.osexp","C:\Users\jobay\Downloads","False","mono","False","25","40","80","no","white","no","yes","768","legacy","82","82","G:\class task\subject-5.csv","xpyriment","2","7","Neonatal Nightingale","4.1.6","0","p","NA","space","p","1425.0","NA","57591","1425","12637","space","2","legacy","1024","2","48000","-16","experiment","5","odd","250908","250204","73404","NA","3167","250406","15812","250908","252334","250199","3172","STROOP_task","78","97821.0","83","1024"
"94","94","1188","1188","#3d3846","xpyriment","legacy","legacy","i","1","undefined","1","q","undefined","83","83","0","0","0","83","0","83","83","83","0","Mon Dec 15 20:41:49 2025","The main experiment item","False","stroop_task.osexp","C:\Users\jobay\Downloads","False","mono","False","25","40","80","no","white","no","yes","768","legacy","83","83","G:\class task\subject-5.csv","xpyriment","7","6","Neonatal Nightingale","4.1.6","0","q","NA","space","q","1980.0","NA","57591","1980","12637","space","2","legacy","1024","2","48000","-16","experiment","5","odd","253321","252616","73404","NA","3167","252819","15812","253321","255302","252612","3172","STROOP_task","79","99801.0","84","1024"
"94","94","1218","1218","#3d3846","xpyriment","legacy","legacy","i","1","undefined","1","p","undefined","84","84","0","0","0","84","0","84","84","84","0","Mon Dec 15 20:41:49 2025","The main experiment item","False","stroop_task.osexp","C:\Users\jobay\Downloads","False","mono","False","25","80","40","no","white","no","yes","768","legacy","84","84","G:\class task\subject-5.csv","xpyriment","1","2","Neonatal Nightingale","4.1.6","0","p","NA","space","p","3776.0","NA","57591","3776","12637","space","2","legacy","1024","2","48000","-16","experiment","5","odd","256285","255581","73404","NA","3167","255783","15812","256285","260062","255577","3172","STROOP_task","80","103577.0","85","1024"
"94","94","1212","1212","#3d3846","xpyriment","legacy","legacy","i","1","undefined","1","q","undefined","85","85","0","0","0","85","0","85","85","85","0","Mon Dec 15 20:41:49 2025","The main experiment item","False","stroop_task.osexp","C:\Users\jobay\Downloads","False","mono","False","25","40","80","no","white","no","yes","768","legacy","85","85","G:\class task\subject-5.csv","xpyriment","2","1","Neonatal Nightingale","4.1.6","0","q","NA","space","q","703.0","NA","57591","703","12637","space","2","legacy","1024","2","48000","-16","experiment","5","odd","261056","260352","73404","NA","3167","260554","15812","261056","261760","260348","3172","STROOP_task","81","104280.0","86","1024"
"94","94","1220","1220","#3d3846","xpyriment","legacy","legacy","c","1","undefined","1","p","undefined","86","86","0","0","0","86","0","86","86","86","0","Mon Dec 15 20:41:49 2025","The main experiment item","False","stroop_task.osexp","C:\Users\jobay\Downloads","False","mono","False","25","40","80","no","white","no","yes","768","legacy","86","86","G:\class task\subject-5.csv","xpyriment","8","9","Neonatal Nightingale","4.1.6","0","p","NA","space","p","1905.0","NA","57591","1905","12637","space","2","legacy","1024","2","48000","-16","experiment","5","odd","262746","262042","73404","NA","3167","262244","15812","262746","264652","262038","3172","STROOP_task","82","106185.0","87","1024"
"94","94","1254","1254","#3d3846","xpyriment","legacy","legacy","c","1","undefined","1","q","undefined","87","87","0","0","0","87","0","87","87","87","0","Mon Dec 15 20:41:49 2025","The main experiment item","False","stroop_task.osexp","C:\Users\jobay\Downloads","False","mono","False","25","80","40","no","white","no","yes","768","legacy","87","87","G:\class task\subject-5.csv","xpyriment","7","2","Neonatal Nightingale","4.1.6","0","q","NA","space","q","4214.0","NA","57591","4214","12637","space","2","legacy","1024","2","48000","-16","experiment","5","odd","265672","264968","73404","NA","3167","265170","15812","265672","269887","264963","3172","STROOP_task","83","110399.0","88","1024"
"94","94","1252","1252","#3d3846","xpyriment","legacy","legacy","i","1","undefined","1","p","undefined","88","88","0","0","0","88","0","88","88","88","0","Mon Dec 15 20:41:49 2025","The main experiment item","False","stroop_task.osexp","C:\Users\jobay\Downloads","False","mono","False","25","80","40","no","white","no","yes","768","legacy","88","88","G:\class task\subject-5.csv","xpyriment","3","4","Neonatal Nightingale","4.1.6","0","p","NA","space","p","1073.0","NA","57591","1073","12637","space","2","legacy","1024","2","48000","-16","experiment","5","odd","270850","270146","73404","NA","3167","270348","15812","270850","271924","270141","3172","STROOP_task","84","111472.0","89","1024"
"94","94","1248","1248","#3d3846","xpyriment","legacy","legacy","c","1","undefined","1","q","undefined","89","89","0","0","0","89","0","89","89","89","0","Mon Dec 15 20:41:49 2025","The main experiment item","False","stroop_task.osexp","C:\Users\jobay\Downloads","False","mono","False","25","80","40","no","white","no","yes","768","legacy","89","89","G:\class task\subject-5.csv","xpyriment","9","4","Neonatal Nightingale","4.1.6","0","q","NA","space","q","909.0","NA","57591","909","12637","space","2","legacy","1024","2","48000","-16","experiment","5","odd","272887","272183","73404","NA","3167","272385","15812","272887","273796","272178","3172","STROOP_task","85","112381.0","90","1024"
"94","94","1287","1287","#3d3846","xpyriment","legacy","legacy","n","1","undefined","1","q","undefined","90","90","0","0","0","90","0","90","90","90","0","Mon Dec 15 20:41:49 2025","The main experiment item","False","stroop_task.osexp","C:\Users\jobay\Downloads","False","mono","False","25","60","60","no","white","no","yes","768","legacy","90","90","G:\class task\subject-5.csv","xpyriment","2","1","Neonatal Nightingale","4.1.6","0","q","NA","space","q","4798.0","NA","57591","4798","12637","space","2","legacy","1024","2","48000","-16","experiment","5","odd","274755","274051","73404","NA","3167","274253","15812","274755","279553","274046","3172","STROOP_task","86","117179.0","91","1024"
"93","93","1286","1286","#3d3846","xpyriment","legacy","legacy","i","0","undefined","0","p","undefined","91","91","0","0","0","91","0","91","91","91","0","Mon Dec 15 20:41:49 2025","The main experiment item","False","stroop_task.osexp","C:\Users\jobay\Downloads","False","mono","False","25","80","40","no","white","no","yes","768","legacy","91","91","G:\class task\subject-5.csv","xpyriment","2","7","Neonatal Nightingale","4.1.6","0","q","NA","space","q","1147.0","NA","57591","1147","12637","space","2","legacy","1024","2","48000","-16","experiment","5","odd","280516","279809","73404","NA","3167","280011","15812","280516","281664","279805","3172","STROOP_task","86","118326.0","92","1024"
"93","93","1281","1281","#3d3846","xpyriment","legacy","legacy","i","1","undefined","1","p","undefined","92","92","0","0","0","92","0","92","92","92","0","Mon Dec 15 20:41:49 2025","The main experiment item","False","stroop_task.osexp","C:\Users\jobay\Downloads","False","mono","False","25","80","40","no","white","no","yes","768","legacy","92","92","G:\class task\subject-5.csv","xpyriment","1","6","Neonatal Nightingale","4.1.6","0","p","NA","space","p","858.0","NA","57591","858","12637","space","2","legacy","1024","2","48000","-16","experiment","5","odd","282638","281934","73404","NA","3167","282136","15812","282638","283497","281929","3172","STROOP_task","87","119184.0","93","1024"
"93","93","1273","1273","#3d3846","xpyriment","legacy","legacy","n","1","undefined","1","p","undefined","93","93","0","0","0","93","0","93","93","93","0","Mon Dec 15 20:41:49 2025","The main experiment item","False","stroop_task.osexp","C:\Users\jobay\Downloads","False","mono","False","25","60","60","no","white","no","yes","768","legacy","93","93","G:\class task\subject-5.csv","xpyriment","1","6","Neonatal Nightingale","4.1.6","0","p","NA","space","p","559.0","NA","57591","559","12637","space","2","legacy","1024","2","48000","-16","experiment","5","odd","284462","283757","73404","NA","3167","283960","15812","284462","285023","283753","3172","STROOP_task","88","119743.0","94","1024"
"93","93","1267","1267","#3d3846","xpyriment","legacy","legacy","i","1","undefined","1","q","undefined","94","94","0","0","0","94","0","94","94","94","0","Mon Dec 15 20:41:49 2025","The main experiment item","False","stroop_task.osexp","C:\Users\jobay\Downloads","False","mono","False","25","40","80","no","white","no","yes","768","legacy","94","94","G:\class task\subject-5.csv","xpyriment","7","2","Neonatal Nightingale","4.1.6","0","q","NA","space","q","622.0","NA","57591","622","12637","space","2","legacy","1024","2","48000","-16","experiment","5","odd","285977","285273","73404","NA","3167","285475","15812","285977","286600","285269","3172","STROOP_task","89","120365.0","95","1024"
"93","93","1263","1263","#3d3846","xpyriment","legacy","legacy","c","1","undefined","1","p","undefined","95","95","0","0","0","95","0","95","95","95","0","Mon Dec 15 20:41:49 2025","The main experiment item","False","stroop_task.osexp","C:\Users\jobay\Downloads","False","mono","False","25","40","80","no","white","no","yes","768","legacy","95","95","G:\class task\subject-5.csv","xpyriment","3","8","Neonatal Nightingale","4.1.6","0","p","NA","space","p","944.0","NA","57591","944","12637","space","2","legacy","1024","2","48000","-16","experiment","5","odd","287571","286867","73404","NA","3167","287069","15812","287571","288516","286862","3172","STROOP_task","90","121309.0","96","1024"
"93","93","1260","1260","#3d3846","xpyriment","legacy","legacy","i","1","undefined","1","q","undefined","96","96","0","0","0","96","0","96","96","96","0","Mon Dec 15 20:41:49 2025","The main experiment item","False","stroop_task.osexp","C:\Users\jobay\Downloads","False","mono","False","25","40","80","no","white","no","yes","768","legacy","96","96","G:\class task\subject-5.csv","xpyriment","4","3","Neonatal Nightingale","4.1.6","0","q","NA","space","q","968.0","NA","57591","968","12637","space","2","legacy","1024","2","48000","-16","experiment","5","odd","289491","288787","73404","NA","3167","288989","15812","289491","290460","288783","3172","STROOP_task","91","122277.0","97","1024"
"93","93","1255","1255","#3d3846","xpyriment","legacy","legacy","n","1","undefined","1","p","undefined","97","97","0","0","0","97","0","97","97","97","0","Mon Dec 15 20:41:49 2025","The main experiment item","False","stroop_task.osexp","C:\Users\jobay\Downloads","False","mono","False","25","60","60","no","white","no","yes","768","legacy","97","97","G:\class task\subject-5.csv","xpyriment","2","7","Neonatal Nightingale","4.1.6","0","p","NA","space","p","782.0","NA","57591","782","12637","space","2","legacy","1024","2","48000","-16","experiment","5","odd","291442","290738","73404","NA","3167","290940","15812","291442","292225","290733","3172","STROOP_task","92","123059.0","98","1024"
"93","93","1251","1251","#3d3846","xpyriment","legacy","legacy","i","1","undefined","1","q","undefined","98","98","0","0","0","98","0","98","98","98","0","Mon Dec 15 20:41:49 2025","The main experiment item","False","stroop_task.osexp","C:\Users\jobay\Downloads","False","mono","False","25","40","80","no","white","no","yes","768","legacy","98","98","G:\class task\subject-5.csv","xpyriment","2","1","Neonatal Nightingale","4.1.6","0","q","NA","space","q","816.0","NA","57591","816","12637","space","2","legacy","1024","2","48000","-16","experiment","5","odd","293204","292500","73404","NA","3167","292702","15812","293204","294021","292496","3172","STROOP_task","93","123875.0","99","1024"
"94","94","1246","1246","#3d3846","xpyriment","legacy","legacy","i","1","undefined","1","p","undefined","99","99","0","0","0","99","0","99","99","99","0","Mon Dec 15 20:41:49 2025","The main experiment item","False","stroop_task.osexp","C:\Users\jobay\Downloads","False","mono","False","25","80","40","no","white","no","yes","768","legacy","99","99","G:\class task\subject-5.csv","xpyriment","4","9","Neonatal Nightingale","4.1.6","0","p","NA","space","p","813.0","NA","57591","813","12637","space","2","legacy","1024","2","48000","-16","experiment","5","odd","295005","294301","73404","NA","3167","294503","15812","295005","295819","294296","3172","STROOP_task","94","124688.0","100","1024"
"94","94","1251","1251","#3d3846","xpyriment","legacy","legacy","n","1","undefined","1","p","undefined","100","100","0","0","0","100","0","100","100","100","0","Mon Dec 15 20:41:49 2025","The main experiment item","False","stroop_task.osexp","C:\Users\jobay\Downloads","False","mono","False","25","60","60","no","white","no","yes","768","legacy","100","100","G:\class task\subject-5.csv","xpyriment","1","2","Neonatal Nightingale","4.1.6","0","p","NA","space","p","1734.0","NA","57591","1734","12637","space","2","legacy","1024","2","48000","-16","experiment","5","odd","296799","296095","73404","NA","3167","296297","15812","296799","298534","296091","3172","STROOP_task","95","126422.0","101","1024"
"94","94","1245","1245","#3d3846","xpyriment","legacy","legacy","i","1","undefined","1","q","undefined","101","101","0","0","0","101","0","101","101","101","0","Mon Dec 15 20:41:49 2025","The main experiment item","False","stroop_task.osexp","C:\Users\jobay\Downloads","False","mono","False","25","40","80","no","white","no","yes","768","legacy","101","101","G:\class task\subject-5.csv","xpyriment","7","2","Neonatal Nightingale","4.1.6","0","q","NA","space","q","641.0","NA","57591","641","12637","space","2","legacy","1024","2","48000","-16","experiment","5","odd","299516","298812","73404","NA","3167","299014","15812","299516","300158","298807","3172","STROOP_task","96","127063.0","102","1024"
"94","94","1260","1260","#3d3846","xpyriment","legacy","legacy","i","1","undefined","1","q","undefined","102","102","0","0","0","102","0","102","102","102","0","Mon Dec 15 20:41:49 2025","The main experiment item","False","stroop_task.osexp","C:\Users\jobay\Downloads","False","mono","False","25","40","80","no","white","no","yes","768","legacy","102","102","G:\class task\subject-5.csv","xpyriment","6","1","Neonatal Nightingale","4.1.6","0","q","NA","space","q","2737.0","NA","57591","2737","12637","space","2","legacy","1024","2","48000","-16","experiment","5","odd","301132","300428","73404","NA","3167","300630","15812","301132","303870","300423","3172","STROOP_task","97","129800.0","103","1024"
"94","94","1279","1279","#3d3846","xpyriment","legacy","legacy","n","1","undefined","1","q","undefined","103","103","0","0","0","103","0","103","103","103","0","Mon Dec 15 20:41:49 2025","The main experiment item","False","stroop_task.osexp","C:\Users\jobay\Downloads","False","mono","False","25","60","60","no","white","no","yes","768","legacy","103","103","G:\class task\subject-5.csv","xpyriment","7","6","Neonatal Nightingale","4.1.6","0","q","NA","space","q","3222.0","NA","57591","3222","12637","space","2","legacy","1024","2","48000","-16","experiment","5","odd","304857","304153","73404","NA","3167","304355","15812","304857","308079","304149","3172","STROOP_task","98","133022.0","104","1024"
"94","94","1272","1272","#3d3846","xpyriment","legacy","legacy","i","1","undefined","1","p","undefined","104","104","0","0","0","104","0","104","104","104","0","Mon Dec 15 20:41:49 2025","The main experiment item","False","stroop_task.osexp","C:\Users\jobay\Downloads","False","mono","False","25","80","40","no","white","no","yes","768","legacy","104","104","G:\class task\subject-5.csv","xpyriment","3","4","Neonatal Nightingale","4.1.6","0","p","NA","space","p","562.0","NA","57591","562","12637","space","2","legacy","1024","2","48000","-16","experiment","5","odd","309093","308389","73404","NA","3167","308591","15812","309093","309656","308385","3172","STROOP_task","99","133584.0","105","1024"
"94","94","1266","1266","#3d3846","xpyriment","legacy","legacy","c","1","undefined","1","p","undefined","105","105","0","0","0","105","0","105","105","105","0","Mon Dec 15 20:41:49 2025","The main experiment item","False","stroop_task.osexp","C:\Users\jobay\Downloads","False","mono","False","25","40","80","no","white","no","yes","768","legacy","105","105","G:\class task\subject-5.csv","xpyriment","3","8","Neonatal Nightingale","4.1.6","0","p","NA","space","p","714.0","NA","57591","714","12637","space","2","legacy","1024","2","48000","-16","experiment","5","odd","310605","309901","73404","NA","3167","310103","15812","310605","311320","309897","3172","STROOP_task","100","134298.0","106","1024"
"93","93","1259","1259","#3d3846","xpyriment","legacy","legacy","i","0","undefined","0","p","undefined","106","106","0","0","0","106","0","106","106","106","0","Mon Dec 15 20:41:49 2025","The main experiment item","False","stroop_task.osexp","C:\Users\jobay\Downloads","False","mono","False","25","80","40","no","white","no","yes","768","legacy","106","106","G:\class task\subject-5.csv","xpyriment","8","9","Neonatal Nightingale","4.1.6","0","q","NA","space","q","484.0","NA","57591","484","12637","space","2","legacy","1024","2","48000","-16","experiment","5","odd","312271","311567","73404","NA","3167","311769","15812","312271","312756","311563","3172","STROOP_task","100","134782.0","107","1024"
"93","93","1258","1258","#3d3846","xpyriment","legacy","legacy","c","1","undefined","1","q","undefined","107","107","0","0","0","107","0","107","107","107","0","Mon Dec 15 20:41:49 2025","The main experiment item","False","stroop_task.osexp","C:\Users\jobay\Downloads","False","mono","False","25","80","40","no","white","no","yes","768","legacy","107","107","G:\class task\subject-5.csv","xpyriment","6","1","Neonatal Nightingale","4.1.6","0","q","NA","space","q","1114.0","NA","57591","1114","12637","space","2","legacy","1024","2","48000","-16","experiment","5","odd","313725","313021","73404","NA","3167","313223","15812","313725","314840","313017","3172","STROOP_task","101","135896.0","108","1024"
"93","93","1252","1252","#3d3846","xpyriment","legacy","legacy","c","1","undefined","1","p","undefined","108","108","0","0","0","108","0","108","108","108","0","Mon Dec 15 20:41:49 2025","The main experiment item","False","stroop_task.osexp","C:\Users\jobay\Downloads","False","mono","False","25","40","80","no","white","no","yes","768","legacy","108","108","G:\class task\subject-5.csv","xpyriment","2","7","Neonatal Nightingale","4.1.6","0","p","NA","space","p","591.0","NA","57591","591","12637","space","2","legacy","1024","2","48000","-16","experiment","5","odd","315806","315102","73404","NA","3167","315304","15812","315806","316398","315098","3172","STROOP_task","102","136487.0","109","1024"
"93","93","1246","1246","#3d3846","xpyriment","legacy","legacy","c","1","undefined","1","p","undefined","109","109","0","0","0","109","0","109","109","109","0","Mon Dec 15 20:41:49 2025","The main experiment item","False","stroop_task.osexp","C:\Users\jobay\Downloads","False","mono","False","25","40","80","no","white","no","yes","768","legacy","109","109","G:\class task\subject-5.csv","xpyriment","2","7","Neonatal Nightingale","4.1.6","0","p","NA","space","p","679.0","NA","57591","679","12637","space","2","legacy","1024","2","48000","-16","experiment","5","odd","317358","316654","73404","NA","3167","316856","15812","317358","318038","316650","3172","STROOP_task","103","137166.0","110","1024"
"93","93","1241","1241","#3d3846","xpyriment","legacy","legacy","n","1","undefined","1","q","undefined","110","110","0","0","0","110","0","110","110","110","0","Mon Dec 15 20:41:49 2025","The main experiment item","False","stroop_task.osexp","C:\Users\jobay\Downloads","False","mono","False","25","60","60","no","white","no","yes","768","legacy","110","110","G:\class task\subject-5.csv","xpyriment","9","4","Neonatal Nightingale","4.1.6","0","q","NA","space","q","645.0","NA","57591","645","12637","space","2","legacy","1024","2","48000","-16","experiment","5","odd","319011","318307","73404","NA","3167","318509","15812","319011","319657","318303","3172","STROOP_task","104","137811.0","111","1024"
"93","93","1244","1244","#3d3846","xpyriment","legacy","legacy","n","1","undefined","1","p","undefined","111","111","0","0","0","111","0","111","111","111","0","Mon Dec 15 20:41:49 2025","The main experiment item","False","stroop_task.osexp","C:\Users\jobay\Downloads","False","mono","False","25","60","60","no","white","no","yes","768","legacy","111","111","G:\class task\subject-5.csv","xpyriment","4","9","Neonatal Nightingale","4.1.6","0","p","NA","space","p","1522.0","NA","57591","1522","12637","space","2","legacy","1024","2","48000","-16","experiment","5","odd","320622","319917","73404","NA","3167","320119","15812","320622","322144","319913","3172","STROOP_task","105","139333.0","112","1024"
"93","93","1236","1236","#3d3846","xpyriment","legacy","legacy","c","1","undefined","1","q","undefined","112","112","0","0","0","112","0","112","112","112","0","Mon Dec 15 20:41:49 2025","The main experiment item","False","stroop_task.osexp","C:\Users\jobay\Downloads","False","mono","False","25","80","40","no","white","no","yes","768","legacy","112","112","G:\class task\subject-5.csv","xpyriment","8","3","Neonatal Nightingale","4.1.6","0","q","NA","space","q","440.0","NA","57591","440","12637","space","2","legacy","1024","2","48000","-16","experiment","5","odd","323057","322353","73404","NA","3167","322555","15812","323057","323498","322348","3172","STROOP_task","106","139773.0","113","1024"
"93","93","1244","1244","#3d3846","xpyriment","legacy","legacy","c","1","undefined","1","p","undefined","113","113","0","0","0","113","0","113","113","113","0","Mon Dec 15 20:41:49 2025","The main experiment item","False","stroop_task.osexp","C:\Users\jobay\Downloads","False","mono","False","25","40","80","no","white","no","yes","768","legacy","113","113","G:\class task\subject-5.csv","xpyriment","8","9","Neonatal Nightingale","4.1.6","0","p","NA","space","p","2153.0","NA","57591","2153","12637","space","2","legacy","1024","2","48000","-16","experiment","5","odd","324402","323698","73404","NA","3167","323900","15812","324402","326556","323693","3172","STROOP_task","107","141926.0","114","1024"
"93","93","1254","1254","#3d3846","xpyriment","legacy","legacy","n","1","undefined","1","p","undefined","114","114","0","0","0","114","0","114","114","114","0","Mon Dec 15 20:41:49 2025","The main experiment item","False","stroop_task.osexp","C:\Users\jobay\Downloads","False","mono","False","25","60","60","no","white","no","yes","768","legacy","114","114","G:\class task\subject-5.csv","xpyriment","4","9","Neonatal Nightingale","4.1.6","0","p","NA","space","p","2297.0","NA","57591","2297","12637","space","2","legacy","1024","2","48000","-16","experiment","5","odd","327526","326822","73404","NA","3167","327024","15812","327526","329824","326818","3172","STROOP_task","108","144223.0","115","1024"
"93","93","1249","1249","#3d3846","xpyriment","legacy","legacy","n","1","undefined","1","p","undefined","115","115","0","0","0","115","0","115","115","115","0","Mon Dec 15 20:41:49 2025","The main experiment item","False","stroop_task.osexp","C:\Users\jobay\Downloads","False","mono","False","25","60","60","no","white","no","yes","768","legacy","115","115","G:\class task\subject-5.csv","xpyriment","8","9","Neonatal Nightingale","4.1.6","0","p","NA","space","p","724.0","NA","57591","724","12637","space","2","legacy","1024","2","48000","-16","experiment","5","odd","330808","330104","73404","NA","3167","330306","15812","330808","331533","330100","3172","STROOP_task","109","144947.0","116","1024"
"94","94","1245","1245","#3d3846","xpyriment","legacy","legacy","n","1","undefined","1","q","undefined","116","116","0","0","0","116","0","116","116","116","0","Mon Dec 15 20:41:49 2025","The main experiment item","False","stroop_task.osexp","C:\Users\jobay\Downloads","False","mono","False","25","60","60","no","white","no","yes","768","legacy","116","116","G:\class task\subject-5.csv","xpyriment","6","1","Neonatal Nightingale","4.1.6","0","q","NA","space","q","795.0","NA","57591","795","12637","space","2","legacy","1024","2","48000","-16","experiment","5","odd","332510","331806","73404","NA","3167","332008","15812","332510","333306","331802","3172","STROOP_task","110","145742.0","117","1024"
"94","94","1250","1250","#3d3846","xpyriment","legacy","legacy","i","1","undefined","1","p","undefined","117","117","0","0","0","117","0","117","117","117","0","Mon Dec 15 20:41:49 2025","The main experiment item","False","stroop_task.osexp","C:\Users\jobay\Downloads","False","mono","False","25","80","40","no","white","no","yes","768","legacy","117","117","G:\class task\subject-5.csv","xpyriment","1","2","Neonatal Nightingale","4.1.6","0","p","NA","space","p","1773.0","NA","57591","1773","12637","space","2","legacy","1024","2","48000","-16","experiment","5","odd","334295","333591","73404","NA","3167","333793","15812","334295","336069","333587","3172","STROOP_task","111","147515.0","118","1024"
"94","94","1244","1244","#3d3846","xpyriment","legacy","legacy","c","1","undefined","1","p","undefined","118","118","0","0","0","118","0","118","118","118","0","Mon Dec 15 20:41:49 2025","The main experiment item","False","stroop_task.osexp","C:\Users\jobay\Downloads","False","mono","False","25","40","80","no","white","no","yes","768","legacy","118","118","G:\class task\subject-5.csv","xpyriment","1","6","Neonatal Nightingale","4.1.6","0","p","NA","space","p","566.0","NA","57591","566","12637","space","2","legacy","1024","2","48000","-16","experiment","5","odd","337056","336352","73404","NA","3167","336554","15812","337056","337624","336347","3172","STROOP_task","112","148081.0","119","1024"
"94","94","1238","1238","#3d3846","xpyriment","legacy","legacy","c","1","undefined","1","q","undefined","119","119","0","0","0","119","0","119","119","119","0","Mon Dec 15 20:41:49 2025","The main experiment item","False","stroop_task.osexp","C:\Users\jobay\Downloads","False","mono","False","25","80","40","no","white","no","yes","768","legacy","119","119","G:\class task\subject-5.csv","xpyriment","6","1","Neonatal Nightingale","4.1.6","0","q","NA","space","q","535.0","NA","57591","535","12637","space","2","legacy","1024","2","48000","-16","experiment","5","odd","338608","337904","73404","NA","3167","338106","15812","338608","339144","337900","3172","STROOP_task","113","148616.0","120","1024"
"94","94","1247","1247","#3d3846","xpyriment","legacy","legacy","c","1","undefined","1","p","undefined","120","120","0","0","0","120","0","120","120","120","0","Mon Dec 15 20:41:49 2025","The main experiment item","False","stroop_task.osexp","C:\Users\jobay\Downloads","False","mono","False","25","40","80","no","white","no","yes","768","legacy","120","120","G:\class task\subject-5.csv","xpyriment","2","7","Neonatal Nightingale","4.1.6","0","p","NA","space","p","2342.0","NA","57591","2342","12637","space","2","legacy","1024","2","48000","-16","experiment","5","odd","340139","339435","73404","NA","3167","339637","15812","340139","342483","339430","3172","STROOP_task","114","150958.0","121","1024"
"94","94","1243","1243","#3d3846","xpyriment","legacy","legacy","n","1","undefined","1","p","undefined","121","121","0","0","0","121","0","121","121","121","0","Mon Dec 15 20:41:49 2025","The main experiment item","False","stroop_task.osexp","C:\Users\jobay\Downloads","False","mono","False","25","60","60","no","white","no","yes","768","legacy","121","121","G:\class task\subject-5.csv","xpyriment","8","9","Neonatal Nightingale","4.1.6","0","p","NA","space","p","772.0","NA","57591","772","12637","space","2","legacy","1024","2","48000","-16","experiment","5","odd","343452","342748","73404","NA","3167","342950","15812","343452","344226","342743","3172","STROOP_task","115","151730.0","122","1024"
"94","94","1244","1244","#3d3846","xpyriment","legacy","legacy","i","1","undefined","1","q","undefined","122","122","0","0","0","122","0","122","122","122","0","Mon Dec 15 20:41:49 2025","The main experiment item","False","stroop_task.osexp","C:\Users\jobay\Downloads","False","mono","False","25","40","80","no","white","no","yes","768","legacy","122","122","G:\class task\subject-5.csv","xpyriment","8","3","Neonatal Nightingale","4.1.6","0","q","NA","space","q","1330.0","NA","57591","1330","12637","space","2","legacy","1024","2","48000","-16","experiment","5","odd","345184","344480","73404","NA","3167","344682","15812","345184","346515","344476","3172","STROOP_task","116","153060.0","123","1024"
"94","94","1239","1239","#3d3846","xpyriment","legacy","legacy","n","1","undefined","1","q","undefined","123","123","0","0","0","123","0","123","123","123","0","Mon Dec 15 20:41:49 2025","The main experiment item","False","stroop_task.osexp","C:\Users\jobay\Downloads","False","mono","False","25","60","60","no","white","no","yes","768","legacy","123","123","G:\class task\subject-5.csv","xpyriment","9","4","Neonatal Nightingale","4.1.6","0","q","NA","space","q","587.0","NA","57591","587","12637","space","2","legacy","1024","2","48000","-16","experiment","5","odd","347473","346768","73404","NA","3167","346970","15812","347473","348061","346764","3172","STROOP_task","117","153647.0","124","1024"
"93","93","1235","1235","#3d3846","xpyriment","legacy","legacy","n","0","undefined","0","q","undefined","124","124","0","0","0","124","0","124","124","124","0","Mon Dec 15 20:41:49 2025","The main experiment item","False","stroop_task.osexp","C:\Users\jobay\Downloads","False","mono","False","25","60","60","no","white","no","yes","768","legacy","124","124","G:\class task\subject-5.csv","xpyriment","8","3","Neonatal Nightingale","4.1.6","0","p","NA","space","p","839.0","NA","57591","839","12637","space","2","legacy","1024","2","48000","-16","experiment","5","odd","349033","348329","73404","NA","3167","348531","15812","349033","349873","348325","3172","STROOP_task","117","154486.0","125","1024"
"93","93","1242","1242","#3d3846","xpyriment","legacy","legacy","n","1","undefined","1","q","undefined","125","125","0","0","0","125","0","125","125","125","0","Mon Dec 15 20:41:49 2025","The main experiment item","False","stroop_task.osexp","C:\Users\jobay\Downloads","False","mono","False","25","60","60","no","white","no","yes","768","legacy","125","125","G:\class task\subject-5.csv","xpyriment","9","8","Neonatal Nightingale","4.1.6","0","q","NA","space","q","2015.0","NA","57591","2015","12637","space","2","legacy","1024","2","48000","-16","experiment","5","odd","350831","350127","73404","NA","3167","350329","15812","350831","352847","350123","3172","STROOP_task","118","156501.0","126","1024"
"93","93","1236","1236","#3d3846","xpyriment","legacy","legacy","c","1","undefined","1","q","undefined","126","126","0","0","0","126","0","126","126","126","0","Mon Dec 15 20:41:49 2025","The main experiment item","False","stroop_task.osexp","C:\Users\jobay\Downloads","False","mono","False","25","80","40","no","white","no","yes","768","legacy","126","126","G:\class task\subject-5.csv","xpyriment","8","3","Neonatal Nightingale","4.1.6","0","q","NA","space","q","590.0","NA","57591","590","12637","space","2","legacy","1024","2","48000","-16","experiment","5","odd","353814","353108","73404","NA","3167","353312","15812","353814","354405","353104","3172","STROOP_task","119","157091.0","127","1024"
"93","93","1234","1234","#3d3846","xpyriment","legacy","legacy","c","1","undefined","1","p","undefined","127","127","0","0","0","127","0","127","127","127","0","Mon Dec 15 20:41:49 2025","The main experiment item","False","stroop_task.osexp","C:\Users\jobay\Downloads","False","mono","False","25","40","80","no","white","no","yes","768","legacy","127","127","G:\class task\subject-5.csv","xpyriment","6","7","Neonatal Nightingale","4.1.6","0","p","NA","space","p","953.0","NA","57591","953","12637","space","2","legacy","1024","2","48000","-16","experiment","5","odd","355370","354666","73404","NA","3167","354868","15812","355370","356324","354662","3172","STROOP_task","120","158044.0","128","1024"
"93","93","1232","1232","#3d3846","xpyriment","legacy","legacy","i","1","undefined","1","p","undefined","128","128","0","0","0","128","0","128","128","128","0","Mon Dec 15 20:41:49 2025","The main experiment item","False","stroop_task.osexp","C:\Users\jobay\Downloads","False","mono","False","25","80","40","no","white","no","yes","768","legacy","128","128","G:\class task\subject-5.csv","xpyriment","2","7","Neonatal Nightingale","4.1.6","0","p","NA","space","p","916.0","NA","57591","916","12637","space","2","legacy","1024","2","48000","-16","experiment","5","odd","357250","356546","73404","NA","3167","356748","15812","357250","358167","356541","3172","STROOP_task","121","158960.0","129","1024"
"93","93","1232","1232","#3d3846","xpyriment","legacy","legacy","i","1","undefined","1","p","undefined","129","129","0","0","0","129","0","129","129","129","0","Mon Dec 15 20:41:49 2025","The main experiment item","False","stroop_task.osexp","C:\Users\jobay\Downloads","False","mono","False","25","80","40","no","white","no","yes","768","legacy","129","129","G:\class task\subject-5.csv","xpyriment","1","6","Neonatal Nightingale","4.1.6","0","p","NA","space","p","1229.0","NA","57591","1229","12637","space","2","legacy","1024","2","48000","-16","experiment","5","odd","359141","358437","73404","NA","3167","358639","15812","359141","360371","358433","3172","STROOP_task","122","160189.0","130","1024"
"93","93","1228","1228","#3d3846","xpyriment","legacy","legacy","i","1","undefined","1","q","undefined","130","130","0","0","0","130","0","130","130","130","0","Mon Dec 15 20:41:49 2025","The main experiment item","False","stroop_task.osexp","C:\Users\jobay\Downloads","False","mono","False","25","40","80","no","white","no","yes","768","legacy","130","130","G:\class task\subject-5.csv","xpyriment","6","1","Neonatal Nightingale","4.1.6","0","q","NA","space","q","759.0","NA","57591","759","12637","space","2","legacy","1024","2","48000","-16","experiment","5","odd","361347","360643","73404","NA","3167","360845","15812","361347","362107","360639","3172","STROOP_task","123","160948.0","131","1024"
"93","93","1224","1224","#3d3846","xpyriment","legacy","legacy","n","1","undefined","1","q","undefined","131","131","0","0","0","131","0","131","131","131","0","Mon Dec 15 20:41:49 2025","The main experiment item","False","stroop_task.osexp","C:\Users\jobay\Downloads","False","mono","False","25","60","60","no","white","no","yes","768","legacy","131","131","G:\class task\subject-5.csv","xpyriment","7","2","Neonatal Nightingale","4.1.6","0","q","NA","space","q","716.0","NA","57591","716","12637","space","2","legacy","1024","2","48000","-16","experiment","5","odd","363096","362392","73404","NA","3167","362594","15812","363096","363813","362388","3172","STROOP_task","124","161664.0","132","1024"
"93","93","1222","1222","#3d3846","xpyriment","legacy","legacy","i","1","undefined","1","q","undefined","132","132","0","0","0","132","0","132","132","132","0","Mon Dec 15 20:41:49 2025","The main experiment item","False","stroop_task.osexp","C:\Users\jobay\Downloads","False","mono","False","25","40","80","no","white","no","yes","768","legacy","132","132","G:\class task\subject-5.csv","xpyriment","4","3","Neonatal Nightingale","4.1.6","0","q","NA","space","q","906.0","NA","57591","906","12637","space","2","legacy","1024","2","48000","-16","experiment","5","odd","364798","364094","73404","NA","3167","364296","15812","364798","365705","364090","3172","STROOP_task","125","162570.0","133","1024"
"94","94","1219","1219","#3d3846","xpyriment","legacy","legacy","c","1","undefined","1","p","undefined","133","133","0","0","0","133","0","133","133","133","0","Mon Dec 15 20:41:49 2025","The main experiment item","False","stroop_task.osexp","C:\Users\jobay\Downloads","False","mono","False","25","40","80","no","white","no","yes","768","legacy","133","133","G:\class task\subject-5.csv","xpyriment","3","4","Neonatal Nightingale","4.1.6","0","p","NA","space","p","881.0","NA","57591","881","12637","space","2","legacy","1024","2","48000","-16","experiment","5","odd","366684","365980","73404","NA","3167","366182","15812","366684","367566","365976","3172","STROOP_task","126","163451.0","134","1024"
"94","94","1215","1215","#3d3846","xpyriment","legacy","legacy","i","1","undefined","1","p","undefined","134","134","0","0","0","134","0","134","134","134","0","Mon Dec 15 20:41:49 2025","The main experiment item","False","stroop_task.osexp","C:\Users\jobay\Downloads","False","mono","False","25","80","40","no","white","no","yes","768","legacy","134","134","G:\class task\subject-5.csv","xpyriment","3","8","Neonatal Nightingale","4.1.6","0","p","NA","space","p","698.0","NA","57591","698","12637","space","2","legacy","1024","2","48000","-16","experiment","5","odd","368557","367853","73404","NA","3167","368055","15812","368557","369256","367848","3172","STROOP_task","127","164149.0","135","1024"
"94","94","1210","1210","#3d3846","xpyriment","legacy","legacy","n","1","undefined","1","q","undefined","135","135","0","0","0","135","0","135","135","135","0","Mon Dec 15 20:41:49 2025","The main experiment item","False","stroop_task.osexp","C:\Users\jobay\Downloads","False","mono","False","25","60","60","no","white","no","yes","768","legacy","135","135","G:\class task\subject-5.csv","xpyriment","8","3","Neonatal Nightingale","4.1.6","0","q","NA","space","q","533.0","NA","57591","533","12637","space","2","legacy","1024","2","48000","-16","experiment","5","odd","370233","369528","73404","NA","3167","369731","15812","370233","370767","369524","3172","STROOP_task","128","164682.0","136","1024"
"94","94","1208","1208","#3d3846","xpyriment","legacy","legacy","n","1","undefined","1","q","undefined","136","136","0","0","0","136","0","136","136","136","0","Mon Dec 15 20:41:49 2025","The main experiment item","False","stroop_task.osexp","C:\Users\jobay\Downloads","False","mono","False","25","60","60","no","white","no","yes","768","legacy","136","136","G:\class task\subject-5.csv","xpyriment","6","1","Neonatal Nightingale","4.1.6","0","q","NA","space","q","863.0","NA","57591","863","12637","space","2","legacy","1024","2","48000","-16","experiment","5","odd","371760","371056","73404","NA","3167","371258","15812","371760","372624","371052","3172","STROOP_task","129","165545.0","137","1024"
"94","94","1203","1203","#3d3846","xpyriment","legacy","legacy","c","1","undefined","1","p","undefined","137","137","0","0","0","137","0","137","137","137","0","Mon Dec 15 20:41:49 2025","The main experiment item","False","stroop_task.osexp","C:\Users\jobay\Downloads","False","mono","False","25","40","80","no","white","no","yes","768","legacy","137","137","G:\class task\subject-5.csv","xpyriment","3","4","Neonatal Nightingale","4.1.6","0","p","NA","space","p","549.0","NA","57591","549","12637","space","2","legacy","1024","2","48000","-16","experiment","5","odd","373562","372857","73404","NA","3167","373060","15812","373562","374111","372853","3172","STROOP_task","130","166094.0","138","1024"
"94","94","1201","1201","#3d3846","xpyriment","legacy","legacy","n","1","undefined","1","q","undefined","138","138","0","0","0","138","0","138","138","138","0","Mon Dec 15 20:41:49 2025","The main experiment item","False","stroop_task.osexp","C:\Users\jobay\Downloads","False","mono","False","25","60","60","no","white","no","yes","768","legacy","138","138","G:\class task\subject-5.csv","xpyriment","9","4","Neonatal Nightingale","4.1.6","0","q","NA","space","q","850.0","NA","57591","850","12637","space","2","legacy","1024","2","48000","-16","experiment","5","odd","375134","374430","73404","NA","3167","374632","15812","375134","375986","374426","3172","STROOP_task","131","166944.0","139","1024"
"94","94","1199","1199","#3d3846","xpyriment","legacy","legacy","n","1","undefined","1","p","undefined","139","139","0","0","0","139","0","139","139","139","0","Mon Dec 15 20:41:49 2025","The main experiment item","False","stroop_task.osexp","C:\Users\jobay\Downloads","False","mono","False","25","60","60","no","white","no","yes","768","legacy","139","139","G:\class task\subject-5.csv","xpyriment","2","7","Neonatal Nightingale","4.1.6","0","p","NA","space","p","962.0","NA","57591","962","12637","space","2","legacy","1024","2","48000","-16","experiment","5","odd","376961","376257","73404","NA","3167","376459","15812","376961","377924","376252","3172","STROOP_task","132","167906.0","140","1024"
"93","93","1199","1199","#3d3846","xpyriment","legacy","legacy","i","0","undefined","0","p","undefined","140","140","0","0","0","140","0","140","140","140","0","Mon Dec 15 20:41:49 2025","The main experiment item","False","stroop_task.osexp","C:\Users\jobay\Downloads","False","mono","False","25","80","40","no","white","no","yes","768","legacy","140","140","G:\class task\subject-5.csv","xpyriment","6","7","Neonatal Nightingale","4.1.6","0","q","NA","space","q","1273.0","NA","57591","1273","12637","space","2","legacy","1024","2","48000","-16","experiment","5","odd","378876","378172","73404","NA","3167","378374","15812","378876","380150","378168","3172","STROOP_task","132","169179.0","141","1024"
"93","93","1194","1194","#3d3846","xpyriment","legacy","legacy","n","1","undefined","1","p","undefined","141","141","0","0","0","141","0","141","141","141","0","Mon Dec 15 20:41:49 2025","The main experiment item","False","stroop_task.osexp","C:\Users\jobay\Downloads","False","mono","False","25","60","60","no","white","no","yes","768","legacy","141","141","G:\class task\subject-5.csv","xpyriment","6","7","Neonatal Nightingale","4.1.6","0","p","NA","space","p","485.0","NA","57591","485","12637","space","2","legacy","1024","2","48000","-16","experiment","5","odd","381111","380407","73404","NA","3167","380609","15812","381111","381598","380403","3172","STROOP_task","133","169664.0","142","1024"
