"acc","accuracy","average_response_time","avg_rt","background","canvas_backend","clock_backend","color_backend","condition","correct","correct_intructions","correct_key_response","correct_resp","correct_welcome_message","count_Number","count_blank","count_block_loop","count_end_message","count_experiment","count_fixation","count_intructions","count_key_response","count_logger","count_trial_sequence","count_welcome_message","datetime","description","disable_garbage_collection","experiment_file","experiment_path","font_bold","font_family","font_italic","font_size","font_size_left","font_size_right","font_underline","foreground","form_clicks","fullscreen","height","keyboard_backend","live_row","live_row_block_loop","logfile","mouse_backend","number_left","number_right","opensesame_codename","opensesame_version","repeat_cycle","response","response_end_message","response_intructions","response_key_response","response_time","response_time_end_message","response_time_intructions","response_time_key_response","response_time_welcome_message","response_welcome_message","round_decimals","sampler_backend","sound_buf_size","sound_channels","sound_freq","sound_sample_size","start","subject_nr","subject_parity","time_Number","time_blank","time_block_loop","time_end_message","time_experiment","time_fixation","time_intructions","time_key_response","time_logger","time_trial_sequence","time_welcome_message","title","total_correct","total_response_time","total_responses","width"
"100","100","1806","1806","#3d3846","xpyriment","legacy","legacy","c","1","undefined","1","q","undefined","0","0","0","0","0","0","0","0","0","0","0","Mon Dec 15 20:04:48 2025","The main experiment item","False","stroop_task.osexp","C:\Users\jobay\Downloads","False","mono","False","25","80","40","no","white","no","yes","768","legacy","0","0","G:\class task\subject-2.csv","xpyriment","8","3","Neonatal Nightingale","4.1.6","0","q","NA","space","q","1806.0","NA","21974","1806","7007","space","2","legacy","1024","2","48000","-16","experiment","2","even","30983","30278","30043","NA","1054","30481","8069","30983","32789","30274","1059","STROOP_task","1","1806.0","1","1024"
"100","100","1230","1230","#3d3846","xpyriment","legacy","legacy","i","1","undefined","1","p","undefined","1","1","0","0","0","1","0","1","1","1","0","Mon Dec 15 20:04:48 2025","The main experiment item","False","stroop_task.osexp","C:\Users\jobay\Downloads","False","mono","False","25","80","40","no","white","no","yes","768","legacy","1","1","G:\class task\subject-2.csv","xpyriment","1","6","Neonatal Nightingale","4.1.6","0","p","NA","space","p","654.0","NA","21974","654","7007","space","2","legacy","1024","2","48000","-16","experiment","2","even","34086","33381","30043","NA","1054","33584","8069","34086","34741","33376","1059","STROOP_task","2","2460.0","2","1024"
"100","100","988","988","#3d3846","xpyriment","legacy","legacy","n","1","undefined","1","q","undefined","2","2","0","0","0","2","0","2","2","2","0","Mon Dec 15 20:04:48 2025","The main experiment item","False","stroop_task.osexp","C:\Users\jobay\Downloads","False","mono","False","25","60","60","no","white","no","yes","768","legacy","2","2","G:\class task\subject-2.csv","xpyriment","6","1","Neonatal Nightingale","4.1.6","0","q","NA","space","q","506.0","NA","21974","506","7007","space","2","legacy","1024","2","48000","-16","experiment","2","even","35741","35034","30043","NA","1054","35238","8069","35741","36247","35030","1059","STROOP_task","3","2966.0","3","1024"
"100","100","867","867","#3d3846","xpyriment","legacy","legacy","i","1","undefined","1","p","undefined","3","3","0","0","0","3","0","3","3","3","0","Mon Dec 15 20:04:48 2025","The main experiment item","False","stroop_task.osexp","C:\Users\jobay\Downloads","False","mono","False","25","80","40","no","white","no","yes","768","legacy","3","3","G:\class task\subject-2.csv","xpyriment","2","7","Neonatal Nightingale","4.1.6","0","p","NA","space","p","505.0","NA","21974","505","7007","space","2","legacy","1024","2","48000","-16","experiment","2","even","37256","36551","30043","NA","1054","36754","8069","37256","37761","36546","1059","STROOP_task","4","3471.0","4","1024"
"100","100","782","782","#3d3846","xpyriment","legacy","legacy","c","1","undefined","1","q","undefined","4","4","0","0","0","4","0","4","4","4","0","Mon Dec 15 20:04:48 2025","The main experiment item","False","stroop_task.osexp","C:\Users\jobay\Downloads","False","mono","False","25","80","40","no","white","no","yes","768","legacy","4","4","G:\class task\subject-2.csv","xpyriment","6","1","Neonatal Nightingale","4.1.6","0","q","NA","space","q","439.0","NA","21974","439","7007","space","2","legacy","1024","2","48000","-16","experiment","2","even","38753","38048","30043","NA","1054","38251","8069","38754","39193","38043","1059","STROOP_task","5","3910.0","5","1024"
"100","100","744","744","#3d3846","xpyriment","legacy","legacy","c","1","undefined","1","p","undefined","5","5","0","0","0","5","0","5","5","5","0","Mon Dec 15 20:04:48 2025","The main experiment item","False","stroop_task.osexp","C:\Users\jobay\Downloads","False","mono","False","25","40","80","no","white","no","yes","768","legacy","5","5","G:\class task\subject-2.csv","xpyriment","3","4","Neonatal Nightingale","4.1.6","0","p","NA","space","p","558.0","NA","21974","558","7007","space","2","legacy","1024","2","48000","-16","experiment","2","even","40147","39443","30043","NA","1054","39645","8069","40147","40705","39439","1059","STROOP_task","6","4468.0","6","1024"
"85","85","697","697","#3d3846","xpyriment","legacy","legacy","i","0","undefined","0","p","undefined","6","6","0","0","0","6","0","6","6","6","0","Mon Dec 15 20:04:48 2025","The main experiment item","False","stroop_task.osexp","C:\Users\jobay\Downloads","False","mono","False","25","80","40","no","white","no","yes","768","legacy","6","6","G:\class task\subject-2.csv","xpyriment","6","7","Neonatal Nightingale","4.1.6","0","q","NA","space","q","414.0","NA","21974","414","7007","space","2","legacy","1024","2","48000","-16","experiment","2","even","41661","40957","30043","NA","1054","41159","8069","41661","42076","40953","1059","STROOP_task","6","4882.0","7","1024"
"87","87","715","715","#3d3846","xpyriment","legacy","legacy","n","1","undefined","1","p","undefined","7","7","0","0","0","7","0","7","7","7","0","Mon Dec 15 20:04:48 2025","The main experiment item","False","stroop_task.osexp","C:\Users\jobay\Downloads","False","mono","False","25","60","60","no","white","no","yes","768","legacy","7","7","G:\class task\subject-2.csv","xpyriment","4","9","Neonatal Nightingale","4.1.6","0","p","NA","space","p","842.0","NA","21974","842","7007","space","2","legacy","1024","2","48000","-16","experiment","2","even","43052","42347","30043","NA","1054","42550","8069","43052","43894","42342","1059","STROOP_task","7","5724.0","8","1024"
"88","88","680","680","#3d3846","xpyriment","legacy","legacy","c","1","undefined","1","p","undefined","8","8","0","0","0","8","0","8","8","8","0","Mon Dec 15 20:04:48 2025","The main experiment item","False","stroop_task.osexp","C:\Users\jobay\Downloads","False","mono","False","25","40","80","no","white","no","yes","768","legacy","8","8","G:\class task\subject-2.csv","xpyriment","2","7","Neonatal Nightingale","4.1.6","0","p","NA","space","p","399.0","NA","21974","399","7007","space","2","legacy","1024","2","48000","-16","experiment","2","even","44890","44185","30043","NA","1054","44388","8069","44891","45290","44180","1059","STROOP_task","8","6123.0","9","1024"
"90","90","674","674","#3d3846","xpyriment","legacy","legacy","i","1","undefined","1","q","undefined","9","9","0","0","0","9","0","9","9","9","0","Mon Dec 15 20:04:48 2025","The main experiment item","False","stroop_task.osexp","C:\Users\jobay\Downloads","False","mono","False","25","40","80","no","white","no","yes","768","legacy","9","9","G:\class task\subject-2.csv","xpyriment","7","2","Neonatal Nightingale","4.1.6","0","q","NA","space","q","617.0","NA","21974","617","7007","space","2","legacy","1024","2","48000","-16","experiment","2","even","46287","45581","30043","NA","1054","45784","8069","46287","46904","45577","1059","STROOP_task","9","6740.0","10","1024"
"90","90","661","661","#3d3846","xpyriment","legacy","legacy","i","1","undefined","1","p","undefined","10","10","0","0","0","10","0","10","10","10","0","Mon Dec 15 20:04:48 2025","The main experiment item","False","stroop_task.osexp","C:\Users\jobay\Downloads","False","mono","False","25","80","40","no","white","no","yes","768","legacy","10","10","G:\class task\subject-2.csv","xpyriment","1","2","Neonatal Nightingale","4.1.6","0","p","NA","space","p","541.0","NA","21974","541","7007","space","2","legacy","1024","2","48000","-16","experiment","2","even","47886","47181","30043","NA","1054","47384","8069","47886","48427","47176","1059","STROOP_task","10","7281.0","11","1024"
"91","91","1248","1248","#3d3846","xpyriment","legacy","legacy","i","1","undefined","1","q","undefined","11","11","0","0","0","11","0","11","11","11","0","Mon Dec 15 20:04:48 2025","The main experiment item","False","stroop_task.osexp","C:\Users\jobay\Downloads","False","mono","False","25","40","80","no","white","no","yes","768","legacy","11","11","G:\class task\subject-2.csv","xpyriment","9","8","Neonatal Nightingale","4.1.6","0","q","NA","space","q","7695.0","NA","21974","7695","7007","space","2","legacy","1024","2","48000","-16","experiment","2","even","49435","48731","30043","NA","1054","48933","8069","49435","57130","48726","1059","STROOP_task","11","14976.0","12","1024"
"92","92","1269","1269","#3d3846","xpyriment","legacy","legacy","n","1","undefined","1","p","undefined","12","12","0","0","0","12","0","12","12","12","0","Mon Dec 15 20:04:48 2025","The main experiment item","False","stroop_task.osexp","C:\Users\jobay\Downloads","False","mono","False","25","60","60","no","white","no","yes","768","legacy","12","12","G:\class task\subject-2.csv","xpyriment","3","4","Neonatal Nightingale","4.1.6","0","p","NA","space","p","1533.0","NA","21974","1533","7007","space","2","legacy","1024","2","48000","-16","experiment","2","even","58080","57374","30043","NA","1054","57577","8069","58080","59613","57370","1059","STROOP_task","12","16509.0","13","1024"
"92","92","1213","1213","#3d3846","xpyriment","legacy","legacy","c","1","undefined","1","p","undefined","13","13","0","0","0","13","0","13","13","13","0","Mon Dec 15 20:04:48 2025","The main experiment item","False","stroop_task.osexp","C:\Users\jobay\Downloads","False","mono","False","25","40","80","no","white","no","yes","768","legacy","13","13","G:\class task\subject-2.csv","xpyriment","3","8","Neonatal Nightingale","4.1.6","0","p","NA","space","p","483.0","NA","21974","483","7007","space","2","legacy","1024","2","48000","-16","experiment","2","even","60598","59892","30043","NA","1054","60095","8069","60598","61082","59887","1059","STROOP_task","13","16992.0","14","1024"
"93","93","1181","1181","#3d3846","xpyriment","legacy","legacy","i","1","undefined","1","p","undefined","14","14","0","0","0","14","0","14","14","14","0","Mon Dec 15 20:04:48 2025","The main experiment item","False","stroop_task.osexp","C:\Users\jobay\Downloads","False","mono","False","25","80","40","no","white","no","yes","768","legacy","14","14","G:\class task\subject-2.csv","xpyriment","1","6","Neonatal Nightingale","4.1.6","0","p","NA","space","p","731.0","NA","21974","731","7007","space","2","legacy","1024","2","48000","-16","experiment","2","even","62074","61371","30043","NA","1054","61573","8069","62075","62806","61367","1059","STROOP_task","14","17723.0","15","1024"
"93","93","1150","1150","#3d3846","xpyriment","legacy","legacy","n","1","undefined","1","p","undefined","15","15","0","0","0","15","0","15","15","15","0","Mon Dec 15 20:04:48 2025","The main experiment item","False","stroop_task.osexp","C:\Users\jobay\Downloads","False","mono","False","25","60","60","no","white","no","yes","768","legacy","15","15","G:\class task\subject-2.csv","xpyriment","8","9","Neonatal Nightingale","4.1.6","0","p","NA","space","p","678.0","NA","21974","678","7007","space","2","legacy","1024","2","48000","-16","experiment","2","even","63805","63100","30043","NA","1054","63302","8069","63805","64484","63096","1059","STROOP_task","15","18401.0","16","1024"
"94","94","1112","1112","#3d3846","xpyriment","legacy","legacy","n","1","undefined","1","p","undefined","16","16","0","0","0","16","0","16","16","16","0","Mon Dec 15 20:04:48 2025","The main experiment item","False","stroop_task.osexp","C:\Users\jobay\Downloads","False","mono","False","25","60","60","no","white","no","yes","768","legacy","16","16","G:\class task\subject-2.csv","xpyriment","3","8","Neonatal Nightingale","4.1.6","0","p","NA","space","p","517.0","NA","21974","517","7007","space","2","legacy","1024","2","48000","-16","experiment","2","even","65473","64767","30043","NA","1054","64970","8069","65473","65991","64763","1059","STROOP_task","16","18918.0","17","1024"
"94","94","1082","1082","#3d3846","xpyriment","legacy","legacy","i","1","undefined","1","p","undefined","17","17","0","0","0","17","0","17","17","17","0","Mon Dec 15 20:04:48 2025","The main experiment item","False","stroop_task.osexp","C:\Users\jobay\Downloads","False","mono","False","25","80","40","no","white","no","yes","768","legacy","17","17","G:\class task\subject-2.csv","xpyriment","2","7","Neonatal Nightingale","4.1.6","0","p","NA","space","p","559.0","NA","21974","559","7007","space","2","legacy","1024","2","48000","-16","experiment","2","even","66989","66283","30043","NA","1054","66486","8069","66989","67549","66279","1059","STROOP_task","17","19477.0","18","1024"
"89","89","1048","1048","#3d3846","xpyriment","legacy","legacy","i","0","undefined","0","p","undefined","18","18","0","0","0","18","0","18","18","18","0","Mon Dec 15 20:04:48 2025","The main experiment item","False","stroop_task.osexp","C:\Users\jobay\Downloads","False","mono","False","25","80","40","no","white","no","yes","768","legacy","18","18","G:\class task\subject-2.csv","xpyriment","8","9","Neonatal Nightingale","4.1.6","0","q","NA","space","q","452.0","NA","21974","452","7007","space","2","legacy","1024","2","48000","-16","experiment","2","even","68529","67825","30043","NA","1054","68027","8069","68529","68981","67821","1059","STROOP_task","17","19929.0","19","1024"
"90","90","1021","1021","#3d3846","xpyriment","legacy","legacy","i","1","undefined","1","p","undefined","19","19","0","0","0","19","0","19","19","19","0","Mon Dec 15 20:04:48 2025","The main experiment item","False","stroop_task.osexp","C:\Users\jobay\Downloads","False","mono","False","25","80","40","no","white","no","yes","768","legacy","19","19","G:\class task\subject-2.csv","xpyriment","3","8","Neonatal Nightingale","4.1.6","0","p","NA","space","p","500.0","NA","21974","500","7007","space","2","legacy","1024","2","48000","-16","experiment","2","even","70006","69300","30043","NA","1054","69504","8069","70006","70506","69296","1059","STROOP_task","18","20429.0","20","1024"
"90","90","1006","1006","#3d3846","xpyriment","legacy","legacy","i","1","undefined","1","q","undefined","20","20","0","0","0","20","0","20","20","20","0","Mon Dec 15 20:04:48 2025","The main experiment item","False","stroop_task.osexp","C:\Users\jobay\Downloads","False","mono","False","25","40","80","no","white","no","yes","768","legacy","20","20","G:\class task\subject-2.csv","xpyriment","7","2","Neonatal Nightingale","4.1.6","0","q","NA","space","q","714.0","NA","21974","714","7007","space","2","legacy","1024","2","48000","-16","experiment","2","even","71462","70757","30043","NA","1054","70960","8069","71462","72176","70753","1059","STROOP_task","19","21143.0","21","1024"
"90","90","990","990","#3d3846","xpyriment","legacy","legacy","n","1","undefined","1","q","undefined","21","21","0","0","0","21","0","21","21","21","0","Mon Dec 15 20:04:48 2025","The main experiment item","False","stroop_task.osexp","C:\Users\jobay\Downloads","False","mono","False","25","60","60","no","white","no","yes","768","legacy","21","21","G:\class task\subject-2.csv","xpyriment","6","1","Neonatal Nightingale","4.1.6","0","q","NA","space","q","637.0","NA","21974","637","7007","space","2","legacy","1024","2","48000","-16","experiment","2","even","73080","72375","30043","NA","1054","72578","8069","73080","73717","72370","1059","STROOP_task","20","21780.0","22","1024"
"91","91","1005","1005","#3d3846","xpyriment","legacy","legacy","n","1","undefined","1","q","undefined","22","22","0","0","0","22","0","22","22","22","0","Mon Dec 15 20:04:48 2025","The main experiment item","False","stroop_task.osexp","C:\Users\jobay\Downloads","False","mono","False","25","60","60","no","white","no","yes","768","legacy","22","22","G:\class task\subject-2.csv","xpyriment","7","2","Neonatal Nightingale","4.1.6","0","q","NA","space","q","1354.0","NA","21974","1354","7007","space","2","legacy","1024","2","48000","-16","experiment","2","even","74671","73966","30043","NA","1054","74168","8069","74671","76025","73962","1059","STROOP_task","21","23134.0","23","1024"
"91","91","985","985","#3d3846","xpyriment","legacy","legacy","i","1","undefined","1","p","undefined","23","23","0","0","0","23","0","23","23","23","0","Mon Dec 15 20:04:48 2025","The main experiment item","False","stroop_task.osexp","C:\Users\jobay\Downloads","False","mono","False","25","80","40","no","white","no","yes","768","legacy","23","23","G:\class task\subject-2.csv","xpyriment","6","7","Neonatal Nightingale","4.1.6","0","p","NA","space","p","508.0","NA","21974","508","7007","space","2","legacy","1024","2","48000","-16","experiment","2","even","76999","76294","30043","NA","1054","76497","8069","76999","77507","76289","1059","STROOP_task","22","23642.0","24","1024"
"92","92","975","975","#3d3846","xpyriment","legacy","legacy","c","1","undefined","1","q","undefined","24","24","0","0","0","24","0","24","24","24","0","Mon Dec 15 20:04:48 2025","The main experiment item","False","stroop_task.osexp","C:\Users\jobay\Downloads","False","mono","False","25","80","40","no","white","no","yes","768","legacy","24","24","G:\class task\subject-2.csv","xpyriment","4","3","Neonatal Nightingale","4.1.6","0","q","NA","space","q","741.0","NA","21974","741","7007","space","2","legacy","1024","2","48000","-16","experiment","2","even","78469","77764","30043","NA","1054","77966","8069","78469","79210","77760","1059","STROOP_task","23","24383.0","25","1024"
"92","92","961","961","#3d3846","xpyriment","legacy","legacy","n","1","undefined","1","p","undefined","25","25","0","0","0","25","0","25","25","25","0","Mon Dec 15 20:04:48 2025","The main experiment item","False","stroop_task.osexp","C:\Users\jobay\Downloads","False","mono","False","25","60","60","no","white","no","yes","768","legacy","25","25","G:\class task\subject-2.csv","xpyriment","8","9","Neonatal Nightingale","4.1.6","0","p","NA","space","p","628.0","NA","21974","628","7007","space","2","legacy","1024","2","48000","-16","experiment","2","even","80173","79469","30043","NA","1054","79671","8069","80173","80801","79464","1059","STROOP_task","24","25011.0","26","1024"
"92","92","950","950","#3d3846","xpyriment","legacy","legacy","i","1","undefined","1","q","undefined","26","26","0","0","0","26","0","26","26","26","0","Mon Dec 15 20:04:48 2025","The main experiment item","False","stroop_task.osexp","C:\Users\jobay\Downloads","False","mono","False","25","40","80","no","white","no","yes","768","legacy","26","26","G:\class task\subject-2.csv","xpyriment","9","4","Neonatal Nightingale","4.1.6","0","q","NA","space","q","653.0","NA","21974","653","7007","space","2","legacy","1024","2","48000","-16","experiment","2","even","81778","81073","30043","NA","1054","81275","8069","81778","82431","81068","1059","STROOP_task","25","25664.0","27","1024"
"92","92","932","932","#3d3846","xpyriment","legacy","legacy","c","1","undefined","1","q","undefined","27","27","0","0","0","27","0","27","27","27","0","Mon Dec 15 20:04:48 2025","The main experiment item","False","stroop_task.osexp","C:\Users\jobay\Downloads","False","mono","False","25","80","40","no","white","no","yes","768","legacy","27","27","G:\class task\subject-2.csv","xpyriment","9","8","Neonatal Nightingale","4.1.6","0","q","NA","space","q","434.0","NA","21974","434","7007","space","2","legacy","1024","2","48000","-16","experiment","2","even","83332","82628","30043","NA","1054","82830","8069","83332","83766","82623","1059","STROOP_task","26","26098.0","28","1024"
"93","93","923","923","#3d3846","xpyriment","legacy","legacy","c","1","undefined","1","q","undefined","28","28","0","0","0","28","0","28","28","28","0","Mon Dec 15 20:04:48 2025","The main experiment item","False","stroop_task.osexp","C:\Users\jobay\Downloads","False","mono","False","25","80","40","no","white","no","yes","768","legacy","28","28","G:\class task\subject-2.csv","xpyriment","7","6","Neonatal Nightingale","4.1.6","0","q","NA","space","q","675.0","NA","21974","675","7007","space","2","legacy","1024","2","48000","-16","experiment","2","even","84735","84030","30043","NA","1054","84232","8069","84735","85411","84025","1059","STROOP_task","27","26773.0","29","1024"
"93","93","911","911","#3d3846","xpyriment","legacy","legacy","n","1","undefined","1","q","undefined","29","29","0","0","0","29","0","29","29","29","0","Mon Dec 15 20:04:48 2025","The main experiment item","False","stroop_task.osexp","C:\Users\jobay\Downloads","False","mono","False","25","60","60","no","white","no","yes","768","legacy","29","29","G:\class task\subject-2.csv","xpyriment","8","3","Neonatal Nightingale","4.1.6","0","q","NA","space","q","563.0","NA","21974","563","7007","space","2","legacy","1024","2","48000","-16","experiment","2","even","86376","85671","30043","NA","1054","85873","8069","86376","86940","85666","1059","STROOP_task","28","27336.0","30","1024"
"93","93","901","901","#3d3846","xpyriment","legacy","legacy","c","1","undefined","1","q","undefined","30","30","0","0","0","30","0","30","30","30","0","Mon Dec 15 20:04:48 2025","The main experiment item","False","stroop_task.osexp","C:\Users\jobay\Downloads","False","mono","False","25","80","40","no","white","no","yes","768","legacy","30","30","G:\class task\subject-2.csv","xpyriment","7","6","Neonatal Nightingale","4.1.6","0","q","NA","space","q","617.0","NA","21974","617","7007","space","2","legacy","1024","2","48000","-16","experiment","2","even","87940","87234","30043","NA","1054","87437","8069","87940","88558","87230","1059","STROOP_task","29","27953.0","31","1024"
"93","93","890","890","#3d3846","xpyriment","legacy","legacy","i","1","undefined","1","q","undefined","31","31","0","0","0","31","0","31","31","31","0","Mon Dec 15 20:04:48 2025","The main experiment item","False","stroop_task.osexp","C:\Users\jobay\Downloads","False","mono","False","25","40","80","no","white","no","yes","768","legacy","31","31","G:\class task\subject-2.csv","xpyriment","9","4","Neonatal Nightingale","4.1.6","0","q","NA","space","q","547.0","NA","21974","547","7007","space","2","legacy","1024","2","48000","-16","experiment","2","even","89561","88855","30043","NA","1054","89058","8069","89561","90109","88851","1059","STROOP_task","30","28500.0","32","1024"
"93","93","880","880","#3d3846","xpyriment","legacy","legacy","n","1","undefined","1","p","undefined","32","32","0","0","0","32","0","32","32","32","0","Mon Dec 15 20:04:48 2025","The main experiment item","False","stroop_task.osexp","C:\Users\jobay\Downloads","False","mono","False","25","60","60","no","white","no","yes","768","legacy","32","32","G:\class task\subject-2.csv","xpyriment","3","8","Neonatal Nightingale","4.1.6","0","p","NA","space","p","550.0","NA","21974","550","7007","space","2","legacy","1024","2","48000","-16","experiment","2","even","91087","90382","30043","NA","1054","90584","8069","91087","91638","90378","1059","STROOP_task","31","29050.0","33","1024"
"94","94","867","867","#3d3846","xpyriment","legacy","legacy","c","1","undefined","1","p","undefined","33","33","0","0","0","33","0","33","33","33","0","Mon Dec 15 20:04:48 2025","The main experiment item","False","stroop_task.osexp","C:\Users\jobay\Downloads","False","mono","False","25","40","80","no","white","no","yes","768","legacy","33","33","G:\class task\subject-2.csv","xpyriment","6","7","Neonatal Nightingale","4.1.6","0","p","NA","space","p","457.0","NA","21974","457","7007","space","2","legacy","1024","2","48000","-16","experiment","2","even","92616","91911","30043","NA","1054","92114","8069","92616","93074","91906","1059","STROOP_task","32","29507.0","34","1024"
"94","94","855","855","#3d3846","xpyriment","legacy","legacy","c","1","undefined","1","q","undefined","34","34","0","0","0","34","0","34","34","34","0","Mon Dec 15 20:04:48 2025","The main experiment item","False","stroop_task.osexp","C:\Users\jobay\Downloads","False","mono","False","25","80","40","no","white","no","yes","768","legacy","34","34","G:\class task\subject-2.csv","xpyriment","8","3","Neonatal Nightingale","4.1.6","0","q","NA","space","q","431.0","NA","21974","431","7007","space","2","legacy","1024","2","48000","-16","experiment","2","even","94073","93366","30043","NA","1054","93569","8069","94073","94505","93362","1059","STROOP_task","33","29938.0","35","1024"
"94","94","845","845","#3d3846","xpyriment","legacy","legacy","n","1","undefined","1","p","undefined","35","35","0","0","0","35","0","35","35","35","0","Mon Dec 15 20:04:48 2025","The main experiment item","False","stroop_task.osexp","C:\Users\jobay\Downloads","False","mono","False","25","60","60","no","white","no","yes","768","legacy","35","35","G:\class task\subject-2.csv","xpyriment","1","2","Neonatal Nightingale","4.1.6","0","p","NA","space","p","509.0","NA","21974","509","7007","space","2","legacy","1024","2","48000","-16","experiment","2","even","95544","94838","30043","NA","1054","95041","8069","95544","96053","94834","1059","STROOP_task","34","30447.0","36","1024"
"94","94","842","842","#3d3846","xpyriment","legacy","legacy","n","1","undefined","1","q","undefined","36","36","0","0","0","36","0","36","36","36","0","Mon Dec 15 20:04:48 2025","The main experiment item","False","stroop_task.osexp","C:\Users\jobay\Downloads","False","mono","False","25","60","60","no","white","no","yes","768","legacy","36","36","G:\class task\subject-2.csv","xpyriment","4","3","Neonatal Nightingale","4.1.6","0","q","NA","space","q","720.0","NA","21974","720","7007","space","2","legacy","1024","2","48000","-16","experiment","2","even","97012","96306","30043","NA","1054","96509","8069","97012","97733","96302","1059","STROOP_task","35","31167.0","37","1024"
"94","94","835","835","#3d3846","xpyriment","legacy","legacy","i","1","undefined","1","q","undefined","37","37","0","0","0","37","0","37","37","37","0","Mon Dec 15 20:04:48 2025","The main experiment item","False","stroop_task.osexp","C:\Users\jobay\Downloads","False","mono","False","25","40","80","no","white","no","yes","768","legacy","37","37","G:\class task\subject-2.csv","xpyriment","8","3","Neonatal Nightingale","4.1.6","0","q","NA","space","q","585.0","NA","21974","585","7007","space","2","legacy","1024","2","48000","-16","experiment","2","even","98694","97990","30043","NA","1054","98192","8069","98694","99280","97986","1059","STROOP_task","36","31752.0","38","1024"
"94","94","826","826","#3d3846","xpyriment","legacy","legacy","n","1","undefined","1","p","undefined","38","38","0","0","0","38","0","38","38","38","0","Mon Dec 15 20:04:48 2025","The main experiment item","False","stroop_task.osexp","C:\Users\jobay\Downloads","False","mono","False","25","60","60","no","white","no","yes","768","legacy","38","38","G:\class task\subject-2.csv","xpyriment","1","6","Neonatal Nightingale","4.1.6","0","p","NA","space","p","497.0","NA","21974","497","7007","space","2","legacy","1024","2","48000","-16","experiment","2","even","100237","99533","30043","NA","1054","99735","8069","100237","100734","99528","1059","STROOP_task","37","32249.0","39","1024"
"95","95","823","823","#3d3846","xpyriment","legacy","legacy","n","1","undefined","1","q","undefined","39","39","0","0","0","39","0","39","39","39","0","Mon Dec 15 20:04:48 2025","The main experiment item","False","stroop_task.osexp","C:\Users\jobay\Downloads","False","mono","False","25","60","60","no","white","no","yes","768","legacy","39","39","G:\class task\subject-2.csv","xpyriment","9","8","Neonatal Nightingale","4.1.6","0","q","NA","space","q","673.0","NA","21974","673","7007","space","2","legacy","1024","2","48000","-16","experiment","2","even","101692","100988","30043","NA","1054","101190","8069","101692","102365","100984","1059","STROOP_task","38","32922.0","40","1024"
"95","95","819","819","#3d3846","xpyriment","legacy","legacy","i","1","undefined","1","q","undefined","40","40","0","0","0","40","0","40","40","40","0","Mon Dec 15 20:04:48 2025","The main experiment item","False","stroop_task.osexp","C:\Users\jobay\Downloads","False","mono","False","25","40","80","no","white","no","yes","768","legacy","40","40","G:\class task\subject-2.csv","xpyriment","6","1","Neonatal Nightingale","4.1.6","0","q","NA","space","q","661.0","NA","21974","661","7007","space","2","legacy","1024","2","48000","-16","experiment","2","even","103331","102622","30043","NA","1054","102824","8069","103331","103992","102617","1059","STROOP_task","39","33583.0","41","1024"
"95","95","826","826","#3d3846","xpyriment","legacy","legacy","c","1","undefined","1","p","undefined","41","41","0","0","0","41","0","41","41","41","0","Mon Dec 15 20:04:48 2025","The main experiment item","False","stroop_task.osexp","C:\Users\jobay\Downloads","False","mono","False","25","40","80","no","white","no","yes","768","legacy","41","41","G:\class task\subject-2.csv","xpyriment","8","9","Neonatal Nightingale","4.1.6","0","p","NA","space","p","1116.0","NA","21974","1116","7007","space","2","legacy","1024","2","48000","-16","experiment","2","even","104965","104259","30043","NA","1054","104462","8069","104965","106082","104255","1059","STROOP_task","40","34699.0","42","1024"
"95","95","845","845","#3d3846","xpyriment","legacy","legacy","c","1","undefined","1","p","undefined","42","42","0","0","0","42","0","42","42","42","0","Mon Dec 15 20:04:48 2025","The main experiment item","False","stroop_task.osexp","C:\Users\jobay\Downloads","False","mono","False","25","40","80","no","white","no","yes","768","legacy","42","42","G:\class task\subject-2.csv","xpyriment","6","7","Neonatal Nightingale","4.1.6","0","p","NA","space","p","1640.0","NA","21974","1640","7007","space","2","legacy","1024","2","48000","-16","experiment","2","even","107041","106335","30043","NA","1054","106538","8069","107041","108681","106330","1059","STROOP_task","41","36339.0","43","1024"
"95","95","841","841","#3d3846","xpyriment","legacy","legacy","c","1","undefined","1","p","undefined","43","43","0","0","0","43","0","43","43","43","0","Mon Dec 15 20:04:48 2025","The main experiment item","False","stroop_task.osexp","C:\Users\jobay\Downloads","False","mono","False","25","40","80","no","white","no","yes","768","legacy","43","43","G:\class task\subject-2.csv","xpyriment","3","4","Neonatal Nightingale","4.1.6","0","p","NA","space","p","673.0","NA","21974","673","7007","space","2","legacy","1024","2","48000","-16","experiment","2","even","109586","108881","30043","NA","1054","109084","8069","109586","110259","108877","1059","STROOP_task","42","37012.0","44","1024"
"95","95","835","835","#3d3846","xpyriment","legacy","legacy","c","1","undefined","1","q","undefined","44","44","0","0","0","44","0","44","44","44","0","Mon Dec 15 20:04:48 2025","The main experiment item","False","stroop_task.osexp","C:\Users\jobay\Downloads","False","mono","False","25","80","40","no","white","no","yes","768","legacy","44","44","G:\class task\subject-2.csv","xpyriment","2","1","Neonatal Nightingale","4.1.6","0","q","NA","space","q","564.0","NA","21974","564","7007","space","2","legacy","1024","2","48000","-16","experiment","2","even","111246","110541","30043","NA","1054","110744","8069","111246","111811","110537","1059","STROOP_task","43","37576.0","45","1024"
"95","95","837","837","#3d3846","xpyriment","legacy","legacy","i","1","undefined","1","p","undefined","45","45","0","0","0","45","0","45","45","45","0","Mon Dec 15 20:04:48 2025","The main experiment item","False","stroop_task.osexp","C:\Users\jobay\Downloads","False","mono","False","25","80","40","no","white","no","yes","768","legacy","45","45","G:\class task\subject-2.csv","xpyriment","8","9","Neonatal Nightingale","4.1.6","0","p","NA","space","p","931.0","NA","21974","931","7007","space","2","legacy","1024","2","48000","-16","experiment","2","even","112784","112080","30043","NA","1054","112282","8069","112784","113716","112076","1059","STROOP_task","44","38507.0","46","1024"
"95","95","832","832","#3d3846","xpyriment","legacy","legacy","i","1","undefined","1","p","undefined","46","46","0","0","0","46","0","46","46","46","0","Mon Dec 15 20:04:48 2025","The main experiment item","False","stroop_task.osexp","C:\Users\jobay\Downloads","False","mono","False","25","80","40","no","white","no","yes","768","legacy","46","46","G:\class task\subject-2.csv","xpyriment","1","6","Neonatal Nightingale","4.1.6","0","p","NA","space","p","610.0","NA","21974","610","7007","space","2","legacy","1024","2","48000","-16","experiment","2","even","114654","113950","30043","NA","1054","114152","8069","114654","115265","113946","1059","STROOP_task","45","39117.0","47","1024"
"95","95","826","826","#3d3846","xpyriment","legacy","legacy","c","1","undefined","1","p","undefined","47","47","0","0","0","47","0","47","47","47","0","Mon Dec 15 20:04:48 2025","The main experiment item","False","stroop_task.osexp","C:\Users\jobay\Downloads","False","mono","False","25","40","80","no","white","no","yes","768","legacy","47","47","G:\class task\subject-2.csv","xpyriment","4","9","Neonatal Nightingale","4.1.6","0","p","NA","space","p","531.0","NA","21974","531","7007","space","2","legacy","1024","2","48000","-16","experiment","2","even","116277","115571","30043","NA","1054","115774","8069","116277","116808","115567","1059","STROOP_task","46","39648.0","48","1024"
"95","95","821","821","#3d3846","xpyriment","legacy","legacy","i","1","undefined","1","q","undefined","48","48","0","0","0","48","0","48","48","48","0","Mon Dec 15 20:04:48 2025","The main experiment item","False","stroop_task.osexp","C:\Users\jobay\Downloads","False","mono","False","25","40","80","no","white","no","yes","768","legacy","48","48","G:\class task\subject-2.csv","xpyriment","4","3","Neonatal Nightingale","4.1.6","0","q","NA","space","q","591.0","NA","21974","591","7007","space","2","legacy","1024","2","48000","-16","experiment","2","even","117795","117089","30043","NA","1054","117292","8069","117795","118387","117085","1059","STROOP_task","47","40239.0","49","1024"
"96","96","823","823","#3d3846","xpyriment","legacy","legacy","n","1","undefined","1","q","undefined","49","49","0","0","0","49","0","49","49","49","0","Mon Dec 15 20:04:48 2025","The main experiment item","False","stroop_task.osexp","C:\Users\jobay\Downloads","False","mono","False","25","60","60","no","white","no","yes","768","legacy","49","49","G:\class task\subject-2.csv","xpyriment","7","6","Neonatal Nightingale","4.1.6","0","q","NA","space","q","912.0","NA","21974","912","7007","space","2","legacy","1024","2","48000","-16","experiment","2","even","119337","118631","30043","NA","1054","118834","8069","119337","120250","118627","1059","STROOP_task","48","41151.0","50","1024"
"96","96","817","817","#3d3846","xpyriment","legacy","legacy","i","1","undefined","1","q","undefined","50","50","0","0","0","50","0","50","50","50","0","Mon Dec 15 20:04:48 2025","The main experiment item","False","stroop_task.osexp","C:\Users\jobay\Downloads","False","mono","False","25","40","80","no","white","no","yes","768","legacy","50","50","G:\class task\subject-2.csv","xpyriment","2","1","Neonatal Nightingale","4.1.6","0","q","NA","space","q","566.0","NA","21974","566","7007","space","2","legacy","1024","2","48000","-16","experiment","2","even","121242","120537","30043","NA","1054","120740","8069","121242","121809","120533","1059","STROOP_task","49","41717.0","51","1024"
"96","96","812","812","#3d3846","xpyriment","legacy","legacy","i","1","undefined","1","p","undefined","51","51","0","0","0","51","0","51","51","51","0","Mon Dec 15 20:04:48 2025","The main experiment item","False","stroop_task.osexp","C:\Users\jobay\Downloads","False","mono","False","25","80","40","no","white","no","yes","768","legacy","51","51","G:\class task\subject-2.csv","xpyriment","1","2","Neonatal Nightingale","4.1.6","0","p","NA","space","p","532.0","NA","21974","532","7007","space","2","legacy","1024","2","48000","-16","experiment","2","even","122799","122094","30043","NA","1054","122297","8069","122799","123332","122089","1059","STROOP_task","50","42249.0","52","1024"
"96","96","806","806","#3d3846","xpyriment","legacy","legacy","n","1","undefined","1","q","undefined","52","52","0","0","0","52","0","52","52","52","0","Mon Dec 15 20:04:48 2025","The main experiment item","False","stroop_task.osexp","C:\Users\jobay\Downloads","False","mono","False","25","60","60","no","white","no","yes","768","legacy","52","52","G:\class task\subject-2.csv","xpyriment","2","1","Neonatal Nightingale","4.1.6","0","q","NA","space","q","472.0","NA","21974","472","7007","space","2","legacy","1024","2","48000","-16","experiment","2","even","124336","123632","30043","NA","1054","123834","8069","124336","124809","123628","1059","STROOP_task","51","42721.0","53","1024"
"96","96","802","802","#3d3846","xpyriment","legacy","legacy","n","1","undefined","1","p","undefined","53","53","0","0","0","53","0","53","53","53","0","Mon Dec 15 20:04:48 2025","The main experiment item","False","stroop_task.osexp","C:\Users\jobay\Downloads","False","mono","False","25","60","60","no","white","no","yes","768","legacy","53","53","G:\class task\subject-2.csv","xpyriment","3","4","Neonatal Nightingale","4.1.6","0","p","NA","space","p","598.0","NA","21974","598","7007","space","2","legacy","1024","2","48000","-16","experiment","2","even","125825","125120","30043","NA","1054","125322","8069","125825","126424","125116","1059","STROOP_task","52","43319.0","54","1024"
"96","96","797","797","#3d3846","xpyriment","legacy","legacy","i","1","undefined","1","q","undefined","54","54","0","0","0","54","0","54","54","54","0","Mon Dec 15 20:04:48 2025","The main experiment item","False","stroop_task.osexp","C:\Users\jobay\Downloads","False","mono","False","25","40","80","no","white","no","yes","768","legacy","54","54","G:\class task\subject-2.csv","xpyriment","7","6","Neonatal Nightingale","4.1.6","0","q","NA","space","q","548.0","NA","21974","548","7007","space","2","legacy","1024","2","48000","-16","experiment","2","even","127394","126688","30043","NA","1054","126891","8069","127394","127943","126684","1059","STROOP_task","53","43867.0","55","1024"
"96","96","798","798","#3d3846","xpyriment","legacy","legacy","i","1","undefined","1","p","undefined","55","55","0","0","0","55","0","55","55","55","0","Mon Dec 15 20:04:48 2025","The main experiment item","False","stroop_task.osexp","C:\Users\jobay\Downloads","False","mono","False","25","80","40","no","white","no","yes","768","legacy","55","55","G:\class task\subject-2.csv","xpyriment","8","9","Neonatal Nightingale","4.1.6","0","p","NA","space","p","827.0","NA","21974","827","7007","space","2","legacy","1024","2","48000","-16","experiment","2","even","128900","128195","30043","NA","1054","128396","8069","128900","129728","128190","1059","STROOP_task","54","44694.0","56","1024"
"96","96","792","792","#3d3846","xpyriment","legacy","legacy","c","1","undefined","1","q","undefined","56","56","0","0","0","56","0","56","56","56","0","Mon Dec 15 20:04:48 2025","The main experiment item","False","stroop_task.osexp","C:\Users\jobay\Downloads","False","mono","False","25","80","40","no","white","no","yes","768","legacy","56","56","G:\class task\subject-2.csv","xpyriment","9","4","Neonatal Nightingale","4.1.6","0","q","NA","space","q","459.0","NA","21974","459","7007","space","2","legacy","1024","2","48000","-16","experiment","2","even","130683","129977","30043","NA","1054","130180","8069","130684","131144","129973","1059","STROOP_task","55","45153.0","57","1024"
"96","96","787","787","#3d3846","xpyriment","legacy","legacy","c","1","undefined","1","q","undefined","57","57","0","0","0","57","0","57","57","57","0","Mon Dec 15 20:04:48 2025","The main experiment item","False","stroop_task.osexp","C:\Users\jobay\Downloads","False","mono","False","25","80","40","no","white","no","yes","768","legacy","57","57","G:\class task\subject-2.csv","xpyriment","7","2","Neonatal Nightingale","4.1.6","0","q","NA","space","q","539.0","NA","21974","539","7007","space","2","legacy","1024","2","48000","-16","experiment","2","even","132121","131417","30043","NA","1054","131619","8069","132122","132662","131412","1059","STROOP_task","56","45692.0","58","1024"
"96","96","783","783","#3d3846","xpyriment","legacy","legacy","i","1","undefined","1","p","undefined","58","58","0","0","0","58","0","58","58","58","0","Mon Dec 15 20:04:48 2025","The main experiment item","False","stroop_task.osexp","C:\Users\jobay\Downloads","False","mono","False","25","80","40","no","white","no","yes","768","legacy","58","58","G:\class task\subject-2.csv","xpyriment","2","7","Neonatal Nightingale","4.1.6","0","p","NA","space","p","511.0","NA","21974","511","7007","space","2","legacy","1024","2","48000","-16","experiment","2","even","133636","132931","30043","NA","1054","133133","8069","133636","134148","132926","1059","STROOP_task","57","46203.0","59","1024"
"96","96","778","778","#3d3846","xpyriment","legacy","legacy","c","1","undefined","1","q","undefined","59","59","0","0","0","59","0","59","59","59","0","Mon Dec 15 20:04:48 2025","The main experiment item","False","stroop_task.osexp","C:\Users\jobay\Downloads","False","mono","False","25","80","40","no","white","no","yes","768","legacy","59","59","G:\class task\subject-2.csv","xpyriment","8","3","Neonatal Nightingale","4.1.6","0","q","NA","space","q","510.0","NA","21974","510","7007","space","2","legacy","1024","2","48000","-16","experiment","2","even","135109","134403","30043","NA","1054","134606","8069","135109","135620","134399","1059","STROOP_task","58","46713.0","60","1024"
"96","96","775","775","#3d3846","xpyriment","legacy","legacy","i","1","undefined","1","q","undefined","60","60","0","0","0","60","0","60","60","60","0","Mon Dec 15 20:04:48 2025","The main experiment item","False","stroop_task.osexp","C:\Users\jobay\Downloads","False","mono","False","25","40","80","no","white","no","yes","768","legacy","60","60","G:\class task\subject-2.csv","xpyriment","7","6","Neonatal Nightingale","4.1.6","0","q","NA","space","q","604.0","NA","21974","604","7007","space","2","legacy","1024","2","48000","-16","experiment","2","even","136583","135879","30043","NA","1054","136081","8069","136583","137187","135875","1059","STROOP_task","59","47317.0","61","1024"
"96","96","774","774","#3d3846","xpyriment","legacy","legacy","n","1","undefined","1","p","undefined","61","61","0","0","0","61","0","61","61","61","0","Mon Dec 15 20:04:48 2025","The main experiment item","False","stroop_task.osexp","C:\Users\jobay\Downloads","False","mono","False","25","60","60","no","white","no","yes","768","legacy","61","61","G:\class task\subject-2.csv","xpyriment","4","9","Neonatal Nightingale","4.1.6","0","p","NA","space","p","715.0","NA","21974","715","7007","space","2","legacy","1024","2","48000","-16","experiment","2","even","138152","137447","30043","NA","1054","137650","8069","138152","138868","137442","1059","STROOP_task","60","48032.0","62","1024"
"96","96","770","770","#3d3846","xpyriment","legacy","legacy","n","1","undefined","1","q","undefined","62","62","0","0","0","62","0","62","62","62","0","Mon Dec 15 20:04:48 2025","The main experiment item","False","stroop_task.osexp","C:\Users\jobay\Downloads","False","mono","False","25","60","60","no","white","no","yes","768","legacy","62","62","G:\class task\subject-2.csv","xpyriment","9","4","Neonatal Nightingale","4.1.6","0","q","NA","space","q","513.0","NA","21974","513","7007","space","2","legacy","1024","2","48000","-16","experiment","2","even","139778","139073","30043","NA","1054","139276","8069","139778","140291","139069","1059","STROOP_task","61","48545.0","63","1024"
"96","96","766","766","#3d3846","xpyriment","legacy","legacy","n","1","undefined","1","p","undefined","63","63","0","0","0","63","0","63","63","63","0","Mon Dec 15 20:04:48 2025","The main experiment item","False","stroop_task.osexp","C:\Users\jobay\Downloads","False","mono","False","25","60","60","no","white","no","yes","768","legacy","63","63","G:\class task\subject-2.csv","xpyriment","2","7","Neonatal Nightingale","4.1.6","0","p","NA","space","p","511.0","NA","21974","511","7007","space","2","legacy","1024","2","48000","-16","experiment","2","even","141242","140538","30043","NA","1054","140740","8069","141242","141754","140533","1059","STROOP_task","62","49056.0","64","1024"
"96","96","764","764","#3d3846","xpyriment","legacy","legacy","c","1","undefined","1","p","undefined","64","64","0","0","0","64","0","64","64","64","0","Mon Dec 15 20:04:48 2025","The main experiment item","False","stroop_task.osexp","C:\Users\jobay\Downloads","False","mono","False","25","40","80","no","white","no","yes","768","legacy","64","64","G:\class task\subject-2.csv","xpyriment","4","9","Neonatal Nightingale","4.1.6","0","p","NA","space","p","632.0","NA","21974","632","7007","space","2","legacy","1024","2","48000","-16","experiment","2","even","142714","142010","30043","NA","1054","142212","8069","142714","143347","142005","1059","STROOP_task","63","49688.0","65","1024"
"96","96","763","763","#3d3846","xpyriment","legacy","legacy","i","1","undefined","1","p","undefined","65","65","0","0","0","65","0","65","65","65","0","Mon Dec 15 20:04:48 2025","The main experiment item","False","stroop_task.osexp","C:\Users\jobay\Downloads","False","mono","False","25","80","40","no","white","no","yes","768","legacy","65","65","G:\class task\subject-2.csv","xpyriment","3","4","Neonatal Nightingale","4.1.6","0","p","NA","space","p","690.0","NA","21974","690","7007","space","2","legacy","1024","2","48000","-16","experiment","2","even","144343","143638","30043","NA","1054","143840","8069","144343","145034","143634","1059","STROOP_task","64","50378.0","66","1024"
"97","97","760","760","#3d3846","xpyriment","legacy","legacy","i","1","undefined","1","q","undefined","66","66","0","0","0","66","0","66","66","66","0","Mon Dec 15 20:04:48 2025","The main experiment item","False","stroop_task.osexp","C:\Users\jobay\Downloads","False","mono","False","25","40","80","no","white","no","yes","768","legacy","66","66","G:\class task\subject-2.csv","xpyriment","9","4","Neonatal Nightingale","4.1.6","0","q","NA","space","q","593.0","NA","21974","593","7007","space","2","legacy","1024","2","48000","-16","experiment","2","even","146037","145331","30043","NA","1054","145534","8069","146037","146630","145327","1059","STROOP_task","65","50971.0","67","1024"
"97","97","758","758","#3d3846","xpyriment","legacy","legacy","c","1","undefined","1","p","undefined","67","67","0","0","0","67","0","67","67","67","0","Mon Dec 15 20:04:48 2025","The main experiment item","False","stroop_task.osexp","C:\Users\jobay\Downloads","False","mono","False","25","40","80","no","white","no","yes","768","legacy","67","67","G:\class task\subject-2.csv","xpyriment","2","7","Neonatal Nightingale","4.1.6","0","p","NA","space","p","581.0","NA","21974","581","7007","space","2","legacy","1024","2","48000","-16","experiment","2","even","147626","146922","30043","NA","1054","147124","8069","147626","148207","146917","1059","STROOP_task","66","51552.0","68","1024"
"97","97","754","754","#3d3846","xpyriment","legacy","legacy","n","1","undefined","1","q","undefined","68","68","0","0","0","68","0","68","68","68","0","Mon Dec 15 20:04:48 2025","The main experiment item","False","stroop_task.osexp","C:\Users\jobay\Downloads","False","mono","False","25","60","60","no","white","no","yes","768","legacy","68","68","G:\class task\subject-2.csv","xpyriment","9","4","Neonatal Nightingale","4.1.6","0","q","NA","space","q","526.0","NA","21974","526","7007","space","2","legacy","1024","2","48000","-16","experiment","2","even","149194","148488","30043","NA","1054","148691","8069","149194","149721","148484","1059","STROOP_task","67","52078.0","69","1024"
"97","97","750","750","#3d3846","xpyriment","legacy","legacy","c","1","undefined","1","p","undefined","69","69","0","0","0","69","0","69","69","69","0","Mon Dec 15 20:04:48 2025","The main experiment item","False","stroop_task.osexp","C:\Users\jobay\Downloads","False","mono","False","25","40","80","no","white","no","yes","768","legacy","69","69","G:\class task\subject-2.csv","xpyriment","1","6","Neonatal Nightingale","4.1.6","0","p","NA","space","p","458.0","NA","21974","458","7007","space","2","legacy","1024","2","48000","-16","experiment","2","even","150699","149994","30043","NA","1054","150197","8069","150699","151158","149990","1059","STROOP_task","68","52536.0","70","1024"
"97","97","747","747","#3d3846","xpyriment","legacy","legacy","c","1","undefined","1","q","undefined","70","70","0","0","0","70","0","70","70","70","0","Mon Dec 15 20:04:48 2025","The main experiment item","False","stroop_task.osexp","C:\Users\jobay\Downloads","False","mono","False","25","80","40","no","white","no","yes","768","legacy","70","70","G:\class task\subject-2.csv","xpyriment","8","3","Neonatal Nightingale","4.1.6","0","q","NA","space","q","522.0","NA","21974","522","7007","space","2","legacy","1024","2","48000","-16","experiment","2","even","152123","151419","30043","NA","1054","151621","8069","152123","152646","151414","1059","STROOP_task","69","53058.0","71","1024"
"97","97","743","743","#3d3846","xpyriment","legacy","legacy","n","1","undefined","1","q","undefined","71","71","0","0","0","71","0","71","71","71","0","Mon Dec 15 20:04:48 2025","The main experiment item","False","stroop_task.osexp","C:\Users\jobay\Downloads","False","mono","False","25","60","60","no","white","no","yes","768","legacy","71","71","G:\class task\subject-2.csv","xpyriment","8","3","Neonatal Nightingale","4.1.6","0","q","NA","space","q","504.0","NA","21974","504","7007","space","2","legacy","1024","2","48000","-16","experiment","2","even","153619","152915","30043","NA","1054","153117","8069","153619","154123","152910","1059","STROOP_task","70","53562.0","72","1024"
"97","97","742","742","#3d3846","xpyriment","legacy","legacy","c","1","undefined","1","p","undefined","72","72","0","0","0","72","0","72","72","72","0","Mon Dec 15 20:04:48 2025","The main experiment item","False","stroop_task.osexp","C:\Users\jobay\Downloads","False","mono","False","25","40","80","no","white","no","yes","768","legacy","72","72","G:\class task\subject-2.csv","xpyriment","8","9","Neonatal Nightingale","4.1.6","0","p","NA","space","p","655.0","NA","21974","655","7007","space","2","legacy","1024","2","48000","-16","experiment","2","even","155044","154340","30043","NA","1054","154542","8069","155044","155700","154336","1059","STROOP_task","71","54217.0","73","1024"
"97","97","739","739","#3d3846","xpyriment","legacy","legacy","n","1","undefined","1","q","undefined","73","73","0","0","0","73","0","73","73","73","0","Mon Dec 15 20:04:48 2025","The main experiment item","False","stroop_task.osexp","C:\Users\jobay\Downloads","False","mono","False","25","60","60","no","white","no","yes","768","legacy","73","73","G:\class task\subject-2.csv","xpyriment","9","8","Neonatal Nightingale","4.1.6","0","q","NA","space","q","473.0","NA","21974","473","7007","space","2","legacy","1024","2","48000","-16","experiment","2","even","156658","155952","30043","NA","1054","156155","8069","156658","157131","155947","1059","STROOP_task","72","54690.0","74","1024"
"97","97","736","736","#3d3846","xpyriment","legacy","legacy","i","1","undefined","1","q","undefined","74","74","0","0","0","74","0","74","74","74","0","Mon Dec 15 20:04:48 2025","The main experiment item","False","stroop_task.osexp","C:\Users\jobay\Downloads","False","mono","False","25","40","80","no","white","no","yes","768","legacy","74","74","G:\class task\subject-2.csv","xpyriment","6","1","Neonatal Nightingale","4.1.6","0","q","NA","space","q","518.0","NA","21974","518","7007","space","2","legacy","1024","2","48000","-16","experiment","2","even","158096","157391","30043","NA","1054","157593","8069","158096","158614","157387","1059","STROOP_task","73","55208.0","75","1024"
"97","97","733","733","#3d3846","xpyriment","legacy","legacy","n","1","undefined","1","q","undefined","75","75","0","0","0","75","0","75","75","75","0","Mon Dec 15 20:04:48 2025","The main experiment item","False","stroop_task.osexp","C:\Users\jobay\Downloads","False","mono","False","25","60","60","no","white","no","yes","768","legacy","75","75","G:\class task\subject-2.csv","xpyriment","7","2","Neonatal Nightingale","4.1.6","0","q","NA","space","q","550.0","NA","21974","550","7007","space","2","legacy","1024","2","48000","-16","experiment","2","even","159596","158889","30043","NA","1054","159092","8069","159596","160147","158884","1059","STROOP_task","74","55758.0","76","1024"
"97","97","730","730","#3d3846","xpyriment","legacy","legacy","n","1","undefined","1","p","undefined","76","76","0","0","0","76","0","76","76","76","0","Mon Dec 15 20:04:48 2025","The main experiment item","False","stroop_task.osexp","C:\Users\jobay\Downloads","False","mono","False","25","60","60","no","white","no","yes","768","legacy","76","76","G:\class task\subject-2.csv","xpyriment","1","6","Neonatal Nightingale","4.1.6","0","p","NA","space","p","521.0","NA","21974","521","7007","space","2","legacy","1024","2","48000","-16","experiment","2","even","161107","160401","30043","NA","1054","160604","8069","161107","161629","160397","1059","STROOP_task","75","56279.0","77","1024"
"97","97","728","728","#3d3846","xpyriment","legacy","legacy","n","1","undefined","1","q","undefined","77","77","0","0","0","77","0","77","77","77","0","Mon Dec 15 20:04:48 2025","The main experiment item","False","stroop_task.osexp","C:\Users\jobay\Downloads","False","mono","False","25","60","60","no","white","no","yes","768","legacy","77","77","G:\class task\subject-2.csv","xpyriment","6","1","Neonatal Nightingale","4.1.6","0","q","NA","space","q","514.0","NA","21974","514","7007","space","2","legacy","1024","2","48000","-16","experiment","2","even","162586","161881","30043","NA","1054","162083","8069","162586","163100","161877","1059","STROOP_task","76","56793.0","78","1024"
"97","97","724","724","#3d3846","xpyriment","legacy","legacy","c","1","undefined","1","q","undefined","78","78","0","0","0","78","0","78","78","78","0","Mon Dec 15 20:04:48 2025","The main experiment item","False","stroop_task.osexp","C:\Users\jobay\Downloads","False","mono","False","25","80","40","no","white","no","yes","768","legacy","78","78","G:\class task\subject-2.csv","xpyriment","9","8","Neonatal Nightingale","4.1.6","0","q","NA","space","q","442.0","NA","21974","442","7007","space","2","legacy","1024","2","48000","-16","experiment","2","even","164061","163355","30043","NA","1054","163558","8069","164061","164504","163351","1059","STROOP_task","77","57235.0","79","1024"
"97","97","724","724","#3d3846","xpyriment","legacy","legacy","i","1","undefined","1","p","undefined","79","79","0","0","0","79","0","79","79","79","0","Mon Dec 15 20:04:48 2025","The main experiment item","False","stroop_task.osexp","C:\Users\jobay\Downloads","False","mono","False","25","80","40","no","white","no","yes","768","legacy","79","79","G:\class task\subject-2.csv","xpyriment","3","8","Neonatal Nightingale","4.1.6","0","p","NA","space","p","756.0","NA","21974","756","7007","space","2","legacy","1024","2","48000","-16","experiment","2","even","165475","164769","30043","NA","1054","164972","8069","165475","166231","164765","1059","STROOP_task","78","57991.0","80","1024"
"97","97","723","723","#3d3846","xpyriment","legacy","legacy","i","1","undefined","1","p","undefined","80","80","0","0","0","80","0","80","80","80","0","Mon Dec 15 20:04:48 2025","The main experiment item","False","stroop_task.osexp","C:\Users\jobay\Downloads","False","mono","False","25","80","40","no","white","no","yes","768","legacy","80","80","G:\class task\subject-2.csv","xpyriment","6","7","Neonatal Nightingale","4.1.6","0","p","NA","space","p","646.0","NA","21974","646","7007","space","2","legacy","1024","2","48000","-16","experiment","2","even","167220","166516","30043","NA","1054","166718","8069","167220","167867","166511","1059","STROOP_task","79","58637.0","81","1024"
"97","97","722","722","#3d3846","xpyriment","legacy","legacy","c","1","undefined","1","q","undefined","81","81","0","0","0","81","0","81","81","81","0","Mon Dec 15 20:04:48 2025","The main experiment item","False","stroop_task.osexp","C:\Users\jobay\Downloads","False","mono","False","25","80","40","no","white","no","yes","768","legacy","81","81","G:\class task\subject-2.csv","xpyriment","6","1","Neonatal Nightingale","4.1.6","0","q","NA","space","q","567.0","NA","21974","567","7007","space","2","legacy","1024","2","48000","-16","experiment","2","even","168863","168159","30043","NA","1054","168361","8069","168863","169431","168155","1059","STROOP_task","80","59204.0","82","1024"
"97","97","726","726","#3d3846","xpyriment","legacy","legacy","n","1","undefined","1","q","undefined","82","82","0","0","0","82","0","82","82","82","0","Mon Dec 15 20:04:48 2025","The main experiment item","False","stroop_task.osexp","C:\Users\jobay\Downloads","False","mono","False","25","60","60","no","white","no","yes","768","legacy","82","82","G:\class task\subject-2.csv","xpyriment","7","6","Neonatal Nightingale","4.1.6","0","q","NA","space","q","1124.0","NA","21974","1124","7007","space","2","legacy","1024","2","48000","-16","experiment","2","even","170385","169681","30043","NA","1054","169883","8069","170385","171510","169677","1059","STROOP_task","81","60328.0","83","1024"
"97","97","724","724","#3d3846","xpyriment","legacy","legacy","i","1","undefined","1","q","undefined","83","83","0","0","0","83","0","83","83","83","0","Mon Dec 15 20:04:48 2025","The main experiment item","False","stroop_task.osexp","C:\Users\jobay\Downloads","False","mono","False","25","40","80","no","white","no","yes","768","legacy","83","83","G:\class task\subject-2.csv","xpyriment","8","3","Neonatal Nightingale","4.1.6","0","q","NA","space","q","532.0","NA","21974","532","7007","space","2","legacy","1024","2","48000","-16","experiment","2","even","172506","171802","30043","NA","1054","172004","8069","172506","173038","171798","1059","STROOP_task","82","60860.0","84","1024"
"97","97","725","725","#3d3846","xpyriment","legacy","legacy","c","1","undefined","1","p","undefined","84","84","0","0","0","84","0","84","84","84","0","Mon Dec 15 20:04:48 2025","The main experiment item","False","stroop_task.osexp","C:\Users\jobay\Downloads","False","mono","False","25","40","80","no","white","no","yes","768","legacy","84","84","G:\class task\subject-2.csv","xpyriment","6","7","Neonatal Nightingale","4.1.6","0","p","NA","space","p","784.0","NA","21974","784","7007","space","2","legacy","1024","2","48000","-16","experiment","2","even","174092","173388","30043","NA","1054","173590","8069","174092","174876","173383","1059","STROOP_task","83","61644.0","85","1024"
"97","97","726","726","#3d3846","xpyriment","legacy","legacy","n","1","undefined","1","q","undefined","85","85","0","0","0","85","0","85","85","85","0","Mon Dec 15 20:04:48 2025","The main experiment item","False","stroop_task.osexp","C:\Users\jobay\Downloads","False","mono","False","25","60","60","no","white","no","yes","768","legacy","85","85","G:\class task\subject-2.csv","xpyriment","8","3","Neonatal Nightingale","4.1.6","0","q","NA","space","q","819.0","NA","21974","819","7007","space","2","legacy","1024","2","48000","-16","experiment","2","even","175854","175148","30043","NA","1054","175351","8069","175854","176674","175144","1059","STROOP_task","84","62463.0","86","1024"
"97","97","727","727","#3d3846","xpyriment","legacy","legacy","c","1","undefined","1","q","undefined","86","86","0","0","0","86","0","86","86","86","0","Mon Dec 15 20:04:48 2025","The main experiment item","False","stroop_task.osexp","C:\Users\jobay\Downloads","False","mono","False","25","80","40","no","white","no","yes","768","legacy","86","86","G:\class task\subject-2.csv","xpyriment","2","1","Neonatal Nightingale","4.1.6","0","q","NA","space","q","804.0","NA","21974","804","7007","space","2","legacy","1024","2","48000","-16","experiment","2","even","177667","176962","30043","NA","1054","177165","8069","177667","178472","176958","1059","STROOP_task","85","63267.0","87","1024"
"97","97","727","727","#3d3846","xpyriment","legacy","legacy","i","1","undefined","1","q","undefined","87","87","0","0","0","87","0","87","87","87","0","Mon Dec 15 20:04:48 2025","The main experiment item","False","stroop_task.osexp","C:\Users\jobay\Downloads","False","mono","False","25","40","80","no","white","no","yes","768","legacy","87","87","G:\class task\subject-2.csv","xpyriment","9","4","Neonatal Nightingale","4.1.6","0","q","NA","space","q","778.0","NA","21974","778","7007","space","2","legacy","1024","2","48000","-16","experiment","2","even","179507","178802","30043","NA","1054","179004","8069","179508","180286","178797","1059","STROOP_task","86","64045.0","88","1024"
"97","97","727","727","#3d3846","xpyriment","legacy","legacy","c","1","undefined","1","q","undefined","88","88","0","0","0","88","0","88","88","88","0","Mon Dec 15 20:04:48 2025","The main experiment item","False","stroop_task.osexp","C:\Users\jobay\Downloads","False","mono","False","25","80","40","no","white","no","yes","768","legacy","88","88","G:\class task\subject-2.csv","xpyriment","7","2","Neonatal Nightingale","4.1.6","0","q","NA","space","q","733.0","NA","21974","733","7007","space","2","legacy","1024","2","48000","-16","experiment","2","even","181239","180536","30043","NA","1054","180737","8069","181239","181973","180532","1059","STROOP_task","87","64778.0","89","1024"
"97","97","728","728","#3d3846","xpyriment","legacy","legacy","c","1","undefined","1","p","undefined","89","89","0","0","0","89","0","89","89","89","0","Mon Dec 15 20:04:48 2025","The main experiment item","False","stroop_task.osexp","C:\Users\jobay\Downloads","False","mono","False","25","40","80","no","white","no","yes","768","legacy","89","89","G:\class task\subject-2.csv","xpyriment","8","9","Neonatal Nightingale","4.1.6","0","p","NA","space","p","779.0","NA","21974","779","7007","space","2","legacy","1024","2","48000","-16","experiment","2","even","182928","182223","30043","NA","1054","182426","8069","182928","183708","182219","1059","STROOP_task","88","65557.0","90","1024"
"97","97","725","725","#3d3846","xpyriment","legacy","legacy","n","1","undefined","1","q","undefined","90","90","0","0","0","90","0","90","90","90","0","Mon Dec 15 20:04:48 2025","The main experiment item","False","stroop_task.osexp","C:\Users\jobay\Downloads","False","mono","False","25","60","60","no","white","no","yes","768","legacy","90","90","G:\class task\subject-2.csv","xpyriment","9","8","Neonatal Nightingale","4.1.6","0","q","NA","space","q","474.0","NA","21974","474","7007","space","2","legacy","1024","2","48000","-16","experiment","2","even","184672","183967","30043","NA","1054","184170","8069","184672","185147","183962","1059","STROOP_task","89","66031.0","91","1024"
"97","97","726","726","#3d3846","xpyriment","legacy","legacy","c","1","undefined","1","p","undefined","91","91","0","0","0","91","0","91","91","91","0","Mon Dec 15 20:04:48 2025","The main experiment item","False","stroop_task.osexp","C:\Users\jobay\Downloads","False","mono","False","25","40","80","no","white","no","yes","768","legacy","91","91","G:\class task\subject-2.csv","xpyriment","1","2","Neonatal Nightingale","4.1.6","0","p","NA","space","p","780.0","NA","21974","780","7007","space","2","legacy","1024","2","48000","-16","experiment","2","even","186058","185352","30043","NA","1054","185555","8069","186058","186839","185348","1059","STROOP_task","90","66811.0","92","1024"
"97","97","724","724","#3d3846","xpyriment","legacy","legacy","c","1","undefined","1","q","undefined","92","92","0","0","0","92","0","92","92","92","0","Mon Dec 15 20:04:48 2025","The main experiment item","False","stroop_task.osexp","C:\Users\jobay\Downloads","False","mono","False","25","80","40","no","white","no","yes","768","legacy","92","92","G:\class task\subject-2.csv","xpyriment","2","1","Neonatal Nightingale","4.1.6","0","q","NA","space","q","547.0","NA","21974","547","7007","space","2","legacy","1024","2","48000","-16","experiment","2","even","187810","187102","30043","NA","1054","187305","8069","187810","188358","187097","1059","STROOP_task","91","67358.0","93","1024"
"97","97","722","722","#3d3846","xpyriment","legacy","legacy","n","1","undefined","1","q","undefined","93","93","0","0","0","93","0","93","93","93","0","Mon Dec 15 20:04:48 2025","The main experiment item","False","stroop_task.osexp","C:\Users\jobay\Downloads","False","mono","False","25","60","60","no","white","no","yes","768","legacy","93","93","G:\class task\subject-2.csv","xpyriment","4","3","Neonatal Nightingale","4.1.6","0","q","NA","space","q","549.0","NA","21974","549","7007","space","2","legacy","1024","2","48000","-16","experiment","2","even","189317","188611","30043","NA","1054","188814","8069","189317","189866","188607","1059","STROOP_task","92","67907.0","94","1024"
"97","97","720","720","#3d3846","xpyriment","legacy","legacy","i","1","undefined","1","q","undefined","94","94","0","0","0","94","0","94","94","94","0","Mon Dec 15 20:04:48 2025","The main experiment item","False","stroop_task.osexp","C:\Users\jobay\Downloads","False","mono","False","25","40","80","no","white","no","yes","768","legacy","94","94","G:\class task\subject-2.csv","xpyriment","6","1","Neonatal Nightingale","4.1.6","0","q","NA","space","q","501.0","NA","21974","501","7007","space","2","legacy","1024","2","48000","-16","experiment","2","even","190819","190113","30043","NA","1054","190317","8069","190819","191321","190109","1059","STROOP_task","93","68408.0","95","1024"
"97","97","717","717","#3d3846","xpyriment","legacy","legacy","n","1","undefined","1","q","undefined","95","95","0","0","0","95","0","95","95","95","0","Mon Dec 15 20:04:48 2025","The main experiment item","False","stroop_task.osexp","C:\Users\jobay\Downloads","False","mono","False","25","60","60","no","white","no","yes","768","legacy","95","95","G:\class task\subject-2.csv","xpyriment","8","3","Neonatal Nightingale","4.1.6","0","q","NA","space","q","434.0","NA","21974","434","7007","space","2","legacy","1024","2","48000","-16","experiment","2","even","192308","191603","30043","NA","1054","191805","8069","192308","192743","191599","1059","STROOP_task","94","68842.0","96","1024"
"97","97","716","716","#3d3846","xpyriment","legacy","legacy","n","1","undefined","1","q","undefined","96","96","0","0","0","96","0","96","96","96","0","Mon Dec 15 20:04:48 2025","The main experiment item","False","stroop_task.osexp","C:\Users\jobay\Downloads","False","mono","False","25","60","60","no","white","no","yes","768","legacy","96","96","G:\class task\subject-2.csv","xpyriment","7","6","Neonatal Nightingale","4.1.6","0","q","NA","space","q","673.0","NA","21974","673","7007","space","2","legacy","1024","2","48000","-16","experiment","2","even","193724","193019","30043","NA","1054","193221","8069","193724","194398","193015","1059","STROOP_task","95","69515.0","97","1024"
"97","97","714","714","#3d3846","xpyriment","legacy","legacy","n","1","undefined","1","p","undefined","97","97","0","0","0","97","0","97","97","97","0","Mon Dec 15 20:04:48 2025","The main experiment item","False","stroop_task.osexp","C:\Users\jobay\Downloads","False","mono","False","25","60","60","no","white","no","yes","768","legacy","97","97","G:\class task\subject-2.csv","xpyriment","3","8","Neonatal Nightingale","4.1.6","0","p","NA","space","p","491.0","NA","21974","491","7007","space","2","legacy","1024","2","48000","-16","experiment","2","even","195401","194696","30043","NA","1054","194898","8069","195401","195893","194692","1059","STROOP_task","96","70006.0","98","1024"
"97","97","712","712","#3d3846","xpyriment","legacy","legacy","c","1","undefined","1","q","undefined","98","98","0","0","0","98","0","98","98","98","0","Mon Dec 15 20:04:48 2025","The main experiment item","False","stroop_task.osexp","C:\Users\jobay\Downloads","False","mono","False","25","80","40","no","white","no","yes","768","legacy","98","98","G:\class task\subject-2.csv","xpyriment","6","1","Neonatal Nightingale","4.1.6","0","q","NA","space","q","504.0","NA","21974","504","7007","space","2","legacy","1024","2","48000","-16","experiment","2","even","196879","196173","30043","NA","1054","196376","8069","196879","197384","196169","1059","STROOP_task","97","70510.0","99","1024"
"98","98","710","710","#3d3846","xpyriment","legacy","legacy","n","1","undefined","1","q","undefined","99","99","0","0","0","99","0","99","99","99","0","Mon Dec 15 20:04:48 2025","The main experiment item","False","stroop_task.osexp","C:\Users\jobay\Downloads","False","mono","False","25","60","60","no","white","no","yes","768","legacy","99","99","G:\class task\subject-2.csv","xpyriment","9","4","Neonatal Nightingale","4.1.6","0","q","NA","space","q","508.0","NA","21974","508","7007","space","2","legacy","1024","2","48000","-16","experiment","2","even","198369","197661","30043","NA","1054","197866","8069","198369","198877","197657","1059","STROOP_task","98","71018.0","100","1024"
"98","98","708","708","#3d3846","xpyriment","legacy","legacy","i","1","undefined","1","q","undefined","100","100","0","0","0","100","0","100","100","100","0","Mon Dec 15 20:04:48 2025","The main experiment item","False","stroop_task.osexp","C:\Users\jobay\Downloads","False","mono","False","25","40","80","no","white","no","yes","768","legacy","100","100","G:\class task\subject-2.csv","xpyriment","7","2","Neonatal Nightingale","4.1.6","0","q","NA","space","q","521.0","NA","21974","521","7007","space","2","legacy","1024","2","48000","-16","experiment","2","even","199869","199164","30043","NA","1054","199367","8069","199869","200391","199160","1059","STROOP_task","99","71539.0","101","1024"
"98","98","706","706","#3d3846","xpyriment","legacy","legacy","i","1","undefined","1","p","undefined","101","101","0","0","0","101","0","101","101","101","0","Mon Dec 15 20:04:48 2025","The main experiment item","False","stroop_task.osexp","C:\Users\jobay\Downloads","False","mono","False","25","80","40","no","white","no","yes","768","legacy","101","101","G:\class task\subject-2.csv","xpyriment","1","6","Neonatal Nightingale","4.1.6","0","p","NA","space","p","569.0","NA","21974","569","7007","space","2","legacy","1024","2","48000","-16","experiment","2","even","201381","200675","30043","NA","1054","200878","8069","201381","201951","200671","1059","STROOP_task","100","72108.0","102","1024"
"98","98","705","705","#3d3846","xpyriment","legacy","legacy","i","1","undefined","1","q","undefined","102","102","0","0","0","102","0","102","102","102","0","Mon Dec 15 20:04:48 2025","The main experiment item","False","stroop_task.osexp","C:\Users\jobay\Downloads","False","mono","False","25","40","80","no","white","no","yes","768","legacy","102","102","G:\class task\subject-2.csv","xpyriment","2","1","Neonatal Nightingale","4.1.6","0","q","NA","space","q","595.0","NA","21974","595","7007","space","2","legacy","1024","2","48000","-16","experiment","2","even","202947","202242","30043","NA","1054","202445","8069","202947","203542","202238","1059","STROOP_task","101","72703.0","103","1024"
"98","98","707","707","#3d3846","xpyriment","legacy","legacy","c","1","undefined","1","p","undefined","103","103","0","0","0","103","0","103","103","103","0","Mon Dec 15 20:04:48 2025","The main experiment item","False","stroop_task.osexp","C:\Users\jobay\Downloads","False","mono","False","25","40","80","no","white","no","yes","768","legacy","103","103","G:\class task\subject-2.csv","xpyriment","3","4","Neonatal Nightingale","4.1.6","0","p","NA","space","p","847.0","NA","21974","847","7007","space","2","legacy","1024","2","48000","-16","experiment","2","even","204533","203828","30043","NA","1054","204031","8069","204533","205381","203824","1059","STROOP_task","102","73550.0","104","1024"
"98","98","705","705","#3d3846","xpyriment","legacy","legacy","n","1","undefined","1","p","undefined","104","104","0","0","0","104","0","104","104","104","0","Mon Dec 15 20:04:48 2025","The main experiment item","False","stroop_task.osexp","C:\Users\jobay\Downloads","False","mono","False","25","60","60","no","white","no","yes","768","legacy","104","104","G:\class task\subject-2.csv","xpyriment","1","2","Neonatal Nightingale","4.1.6","0","p","NA","space","p","545.0","NA","21974","545","7007","space","2","legacy","1024","2","48000","-16","experiment","2","even","206417","205711","30043","NA","1054","205914","8069","206417","206963","205707","1059","STROOP_task","103","74095.0","105","1024"
"98","98","703","703","#3d3846","xpyriment","legacy","legacy","n","1","undefined","1","q","undefined","105","105","0","0","0","105","0","105","105","105","0","Mon Dec 15 20:04:48 2025","The main experiment item","False","stroop_task.osexp","C:\Users\jobay\Downloads","False","mono","False","25","60","60","no","white","no","yes","768","legacy","105","105","G:\class task\subject-2.csv","xpyriment","2","1","Neonatal Nightingale","4.1.6","0","q","NA","space","q","479.0","NA","21974","479","7007","space","2","legacy","1024","2","48000","-16","experiment","2","even","207919","207214","30043","NA","1054","207417","8069","207919","208399","207210","1059","STROOP_task","104","74574.0","106","1024"
"98","98","700","700","#3d3846","xpyriment","legacy","legacy","c","1","undefined","1","p","undefined","106","106","0","0","0","106","0","106","106","106","0","Mon Dec 15 20:04:48 2025","The main experiment item","False","stroop_task.osexp","C:\Users\jobay\Downloads","False","mono","False","25","40","80","no","white","no","yes","768","legacy","106","106","G:\class task\subject-2.csv","xpyriment","1","6","Neonatal Nightingale","4.1.6","0","p","NA","space","p","432.0","NA","21974","432","7007","space","2","legacy","1024","2","48000","-16","experiment","2","even","209371","208666","30043","NA","1054","208869","8069","209371","209803","208662","1059","STROOP_task","105","75006.0","107","1024"
"97","97","698","698","#3d3846","xpyriment","legacy","legacy","n","0","undefined","0","p","undefined","107","107","0","0","0","107","0","107","107","107","0","Mon Dec 15 20:04:48 2025","The main experiment item","False","stroop_task.osexp","C:\Users\jobay\Downloads","False","mono","False","25","60","60","no","white","no","yes","768","legacy","107","107","G:\class task\subject-2.csv","xpyriment","4","9","Neonatal Nightingale","4.1.6","0","q","NA","space","q","431.0","NA","21974","431","7007","space","2","legacy","1024","2","48000","-16","experiment","2","even","210768","210063","30043","NA","1054","210266","8069","210768","211200","210059","1059","STROOP_task","105","75437.0","108","1024"
"97","97","697","697","#3d3846","xpyriment","legacy","legacy","n","1","undefined","1","q","undefined","108","108","0","0","0","108","0","108","108","108","0","Mon Dec 15 20:04:48 2025","The main experiment item","False","stroop_task.osexp","C:\Users\jobay\Downloads","False","mono","False","25","60","60","no","white","no","yes","768","legacy","108","108","G:\class task\subject-2.csv","xpyriment","2","1","Neonatal Nightingale","4.1.6","0","q","NA","space","q","571.0","NA","21974","571","7007","space","2","legacy","1024","2","48000","-16","experiment","2","even","212162","211458","30043","NA","1054","211660","8069","212162","212734","211453","1059","STROOP_task","106","76008.0","109","1024"
"97","97","695","695","#3d3846","xpyriment","legacy","legacy","i","1","undefined","1","p","undefined","109","109","0","0","0","109","0","109","109","109","0","Mon Dec 15 20:04:48 2025","The main experiment item","False","stroop_task.osexp","C:\Users\jobay\Downloads","False","mono","False","25","80","40","no","white","no","yes","768","legacy","109","109","G:\class task\subject-2.csv","xpyriment","3","4","Neonatal Nightingale","4.1.6","0","p","NA","space","p","532.0","NA","21974","532","7007","space","2","legacy","1024","2","48000","-16","experiment","2","even","213688","212982","30043","NA","1054","213186","8069","213688","214221","212978","1059","STROOP_task","107","76540.0","110","1024"
"97","97","694","694","#3d3846","xpyriment","legacy","legacy","i","1","undefined","1","q","undefined","110","110","0","0","0","110","0","110","110","110","0","Mon Dec 15 20:04:48 2025","The main experiment item","False","stroop_task.osexp","C:\Users\jobay\Downloads","False","mono","False","25","40","80","no","white","no","yes","768","legacy","110","110","G:\class task\subject-2.csv","xpyriment","7","6","Neonatal Nightingale","4.1.6","0","q","NA","space","q","552.0","NA","21974","552","7007","space","2","legacy","1024","2","48000","-16","experiment","2","even","215191","214481","30043","NA","1054","214689","8069","215191","215744","214476","1059","STROOP_task","108","77092.0","111","1024"
"97","97","692","692","#3d3846","xpyriment","legacy","legacy","i","1","undefined","1","q","undefined","111","111","0","0","0","111","0","111","111","111","0","Mon Dec 15 20:04:48 2025","The main experiment item","False","stroop_task.osexp","C:\Users\jobay\Downloads","False","mono","False","25","40","80","no","white","no","yes","768","legacy","111","111","G:\class task\subject-2.csv","xpyriment","7","2","Neonatal Nightingale","4.1.6","0","q","NA","space","q","507.0","NA","21974","507","7007","space","2","legacy","1024","2","48000","-16","experiment","2","even","216709","216004","30043","NA","1054","216206","8069","216709","217217","216000","1059","STROOP_task","109","77599.0","112","1024"
"97","97","692","692","#3d3846","xpyriment","legacy","legacy","n","1","undefined","1","p","undefined","112","112","0","0","0","112","0","112","112","112","0","Mon Dec 15 20:04:48 2025","The main experiment item","False","stroop_task.osexp","C:\Users\jobay\Downloads","False","mono","False","25","60","60","no","white","no","yes","768","legacy","112","112","G:\class task\subject-2.csv","xpyriment","4","9","Neonatal Nightingale","4.1.6","0","p","NA","space","p","703.0","NA","21974","703","7007","space","2","legacy","1024","2","48000","-16","experiment","2","even","218179","217473","30043","NA","1054","217676","8069","218179","218884","217469","1059","STROOP_task","110","78302.0","113","1024"
"97","97","690","690","#3d3846","xpyriment","legacy","legacy","c","1","undefined","1","q","undefined","113","113","0","0","0","113","0","113","113","113","0","Mon Dec 15 20:04:48 2025","The main experiment item","False","stroop_task.osexp","C:\Users\jobay\Downloads","False","mono","False","25","80","40","no","white","no","yes","768","legacy","113","113","G:\class task\subject-2.csv","xpyriment","9","4","Neonatal Nightingale","4.1.6","0","q","NA","space","q","437.0","NA","21974","437","7007","space","2","legacy","1024","2","48000","-16","experiment","2","even","219854","219147","30043","NA","1054","219351","8069","219854","220292","219143","1059","STROOP_task","111","78739.0","114","1024"
"97","97","689","689","#3d3846","xpyriment","legacy","legacy","n","1","undefined","1","q","undefined","114","114","0","0","0","114","0","114","114","114","0","Mon Dec 15 20:04:48 2025","The main experiment item","False","stroop_task.osexp","C:\Users\jobay\Downloads","False","mono","False","25","60","60","no","white","no","yes","768","legacy","114","114","G:\class task\subject-2.csv","xpyriment","7","2","Neonatal Nightingale","4.1.6","0","q","NA","space","q","499.0","NA","21974","499","7007","space","2","legacy","1024","2","48000","-16","experiment","2","even","221278","220572","30043","NA","1054","220775","8069","221278","221778","220568","1059","STROOP_task","112","79238.0","115","1024"
"97","97","686","686","#3d3846","xpyriment","legacy","legacy","c","1","undefined","1","p","undefined","115","115","0","0","0","115","0","115","115","115","0","Mon Dec 15 20:04:48 2025","The main experiment item","False","stroop_task.osexp","C:\Users\jobay\Downloads","False","mono","False","25","40","80","no","white","no","yes","768","legacy","115","115","G:\class task\subject-2.csv","xpyriment","2","7","Neonatal Nightingale","4.1.6","0","p","NA","space","p","420.0","NA","21974","420","7007","space","2","legacy","1024","2","48000","-16","experiment","2","even","222774","222070","30043","NA","1054","222272","8069","222774","223195","222065","1059","STROOP_task","113","79658.0","116","1024"
"97","97","686","686","#3d3846","xpyriment","legacy","legacy","i","1","undefined","1","q","undefined","116","116","0","0","0","116","0","116","116","116","0","Mon Dec 15 20:04:48 2025","The main experiment item","False","stroop_task.osexp","C:\Users\jobay\Downloads","False","mono","False","25","40","80","no","white","no","yes","768","legacy","116","116","G:\class task\subject-2.csv","xpyriment","6","1","Neonatal Nightingale","4.1.6","0","q","NA","space","q","661.0","NA","21974","661","7007","space","2","legacy","1024","2","48000","-16","experiment","2","even","224261","223554","30043","NA","1054","223758","8069","224261","224923","223550","1059","STROOP_task","114","80319.0","117","1024"
"97","97","685","685","#3d3846","xpyriment","legacy","legacy","c","1","undefined","1","p","undefined","117","117","0","0","0","117","0","117","117","117","0","Mon Dec 15 20:04:48 2025","The main experiment item","False","stroop_task.osexp","C:\Users\jobay\Downloads","False","mono","False","25","40","80","no","white","no","yes","768","legacy","117","117","G:\class task\subject-2.csv","xpyriment","1","2","Neonatal Nightingale","4.1.6","0","p","NA","space","p","559.0","NA","21974","559","7007","space","2","legacy","1024","2","48000","-16","experiment","2","even","225910","225205","30043","NA","1054","225407","8069","225910","226471","225200","1059","STROOP_task","115","80878.0","118","1024"
"97","97","683","683","#3d3846","xpyriment","legacy","legacy","c","1","undefined","1","p","undefined","118","118","0","0","0","118","0","118","118","118","0","Mon Dec 15 20:04:48 2025","The main experiment item","False","stroop_task.osexp","C:\Users\jobay\Downloads","False","mono","False","25","40","80","no","white","no","yes","768","legacy","118","118","G:\class task\subject-2.csv","xpyriment","1","6","Neonatal Nightingale","4.1.6","0","p","NA","space","p","418.0","NA","21974","418","7007","space","2","legacy","1024","2","48000","-16","experiment","2","even","227468","226763","30043","NA","1054","226965","8069","227468","227887","226759","1059","STROOP_task","116","81296.0","119","1024"
"97","97","682","682","#3d3846","xpyriment","legacy","legacy","i","1","undefined","1","p","undefined","119","119","0","0","0","119","0","119","119","119","0","Mon Dec 15 20:04:48 2025","The main experiment item","False","stroop_task.osexp","C:\Users\jobay\Downloads","False","mono","False","25","80","40","no","white","no","yes","768","legacy","119","119","G:\class task\subject-2.csv","xpyriment","4","9","Neonatal Nightingale","4.1.6","0","p","NA","space","p","603.0","NA","21974","603","7007","space","2","legacy","1024","2","48000","-16","experiment","2","even","228887","228182","30043","NA","1054","228384","8069","228887","229492","228178","1059","STROOP_task","117","81899.0","120","1024"
"97","97","680","680","#3d3846","xpyriment","legacy","legacy","c","1","undefined","1","p","undefined","120","120","0","0","0","120","0","120","120","120","0","Mon Dec 15 20:04:48 2025","The main experiment item","False","stroop_task.osexp","C:\Users\jobay\Downloads","False","mono","False","25","40","80","no","white","no","yes","768","legacy","120","120","G:\class task\subject-2.csv","xpyriment","3","8","Neonatal Nightingale","4.1.6","0","p","NA","space","p","404.0","NA","21974","404","7007","space","2","legacy","1024","2","48000","-16","experiment","2","even","230489","229783","30043","NA","1054","229987","8069","230489","230893","229779","1059","STROOP_task","118","82303.0","121","1024"
"97","97","678","678","#3d3846","xpyriment","legacy","legacy","i","1","undefined","1","q","undefined","121","121","0","0","0","121","0","121","121","121","0","Mon Dec 15 20:04:48 2025","The main experiment item","False","stroop_task.osexp","C:\Users\jobay\Downloads","False","mono","False","25","40","80","no","white","no","yes","768","legacy","121","121","G:\class task\subject-2.csv","xpyriment","8","3","Neonatal Nightingale","4.1.6","0","q","NA","space","q","524.0","NA","21974","524","7007","space","2","legacy","1024","2","48000","-16","experiment","2","even","231934","231229","30043","NA","1054","231431","8069","231934","232459","231224","1059","STROOP_task","119","82827.0","122","1024"
"97","97","676","676","#3d3846","xpyriment","legacy","legacy","c","1","undefined","1","p","undefined","122","122","0","0","0","122","0","122","122","122","0","Mon Dec 15 20:04:48 2025","The main experiment item","False","stroop_task.osexp","C:\Users\jobay\Downloads","False","mono","False","25","40","80","no","white","no","yes","768","legacy","122","122","G:\class task\subject-2.csv","xpyriment","3","4","Neonatal Nightingale","4.1.6","0","p","NA","space","p","408.0","NA","21974","408","7007","space","2","legacy","1024","2","48000","-16","experiment","2","even","233422","232716","30043","NA","1054","232919","8069","233422","233831","232712","1059","STROOP_task","120","83235.0","123","1024"
"97","97","675","675","#3d3846","xpyriment","legacy","legacy","i","1","undefined","1","q","undefined","123","123","0","0","0","123","0","123","123","123","0","Mon Dec 15 20:04:48 2025","The main experiment item","False","stroop_task.osexp","C:\Users\jobay\Downloads","False","mono","False","25","40","80","no","white","no","yes","768","legacy","123","123","G:\class task\subject-2.csv","xpyriment","2","1","Neonatal Nightingale","4.1.6","0","q","NA","space","q","517.0","NA","21974","517","7007","space","2","legacy","1024","2","48000","-16","experiment","2","even","234914","234209","30043","NA","1054","234412","8069","234914","235432","234204","1059","STROOP_task","121","83752.0","124","1024"
"97","97","673","673","#3d3846","xpyriment","legacy","legacy","c","1","undefined","1","q","undefined","124","124","0","0","0","124","0","124","124","124","0","Mon Dec 15 20:04:48 2025","The main experiment item","False","stroop_task.osexp","C:\Users\jobay\Downloads","False","mono","False","25","80","40","no","white","no","yes","768","legacy","124","124","G:\class task\subject-2.csv","xpyriment","7","6","Neonatal Nightingale","4.1.6","0","q","NA","space","q","435.0","NA","21974","435","7007","space","2","legacy","1024","2","48000","-16","experiment","2","even","236385","235677","30043","NA","1054","235881","8069","236385","236821","235672","1059","STROOP_task","122","84187.0","125","1024"
"97","97","672","672","#3d3846","xpyriment","legacy","legacy","i","1","undefined","1","q","undefined","125","125","0","0","0","125","0","125","125","125","0","Mon Dec 15 20:04:48 2025","The main experiment item","False","stroop_task.osexp","C:\Users\jobay\Downloads","False","mono","False","25","40","80","no","white","no","yes","768","legacy","125","125","G:\class task\subject-2.csv","xpyriment","4","3","Neonatal Nightingale","4.1.6","0","q","NA","space","q","550.0","NA","21974","550","7007","space","2","legacy","1024","2","48000","-16","experiment","2","even","237767","237062","30043","NA","1054","237264","8069","237767","238318","237058","1059","STROOP_task","123","84737.0","126","1024"
"97","97","671","671","#3d3846","xpyriment","legacy","legacy","i","1","undefined","1","q","undefined","126","126","0","0","0","126","0","126","126","126","0","Mon Dec 15 20:04:48 2025","The main experiment item","False","stroop_task.osexp","C:\Users\jobay\Downloads","False","mono","False","25","40","80","no","white","no","yes","768","legacy","126","126","G:\class task\subject-2.csv","xpyriment","9","8","Neonatal Nightingale","4.1.6","0","q","NA","space","q","481.0","NA","21974","481","7007","space","2","legacy","1024","2","48000","-16","experiment","2","even","239225","238520","30043","NA","1054","238723","8069","239225","239706","238515","1059","STROOP_task","124","85218.0","127","1024"
"97","97","671","671","#3d3846","xpyriment","legacy","legacy","c","1","undefined","1","p","undefined","127","127","0","0","0","127","0","127","127","127","0","Mon Dec 15 20:04:48 2025","The main experiment item","False","stroop_task.osexp","C:\Users\jobay\Downloads","False","mono","False","25","40","80","no","white","no","yes","768","legacy","127","127","G:\class task\subject-2.csv","xpyriment","6","7","Neonatal Nightingale","4.1.6","0","p","NA","space","p","675.0","NA","21974","675","7007","space","2","legacy","1024","2","48000","-16","experiment","2","even","240660","239954","30043","NA","1054","240158","8069","240660","241337","239950","1059","STROOP_task","125","85893.0","128","1024"
"97","97","669","669","#3d3846","xpyriment","legacy","legacy","i","1","undefined","1","q","undefined","128","128","0","0","0","128","0","128","128","128","0","Mon Dec 15 20:04:48 2025","The main experiment item","False","stroop_task.osexp","C:\Users\jobay\Downloads","False","mono","False","25","40","80","no","white","no","yes","768","legacy","128","128","G:\class task\subject-2.csv","xpyriment","7","6","Neonatal Nightingale","4.1.6","0","q","NA","space","q","518.0","NA","21974","518","7007","space","2","legacy","1024","2","48000","-16","experiment","2","even","242297","241593","30043","NA","1054","241795","8069","242297","242816","241589","1059","STROOP_task","126","86411.0","129","1024"
"97","97","668","668","#3d3846","xpyriment","legacy","legacy","n","1","undefined","1","p","undefined","129","129","0","0","0","129","0","129","129","129","0","Mon Dec 15 20:04:48 2025","The main experiment item","False","stroop_task.osexp","C:\Users\jobay\Downloads","False","mono","False","25","60","60","no","white","no","yes","768","legacy","129","129","G:\class task\subject-2.csv","xpyriment","3","4","Neonatal Nightingale","4.1.6","0","p","NA","space","p","460.0","NA","21974","460","7007","space","2","legacy","1024","2","48000","-16","experiment","2","even","243806","243101","30043","NA","1054","243304","8069","243806","244267","243097","1059","STROOP_task","127","86871.0","130","1024"
"97","97","666","666","#3d3846","xpyriment","legacy","legacy","n","1","undefined","1","p","undefined","130","130","0","0","0","130","0","130","130","130","0","Mon Dec 15 20:04:48 2025","The main experiment item","False","stroop_task.osexp","C:\Users\jobay\Downloads","False","mono","False","25","60","60","no","white","no","yes","768","legacy","130","130","G:\class task\subject-2.csv","xpyriment","6","7","Neonatal Nightingale","4.1.6","0","p","NA","space","p","422.0","NA","21974","422","7007","space","2","legacy","1024","2","48000","-16","experiment","2","even","245229","244523","30043","NA","1054","244726","8069","245229","245652","244519","1059","STROOP_task","128","87293.0","131","1024"
"97","97","666","666","#3d3846","xpyriment","legacy","legacy","c","1","undefined","1","q","undefined","131","131","0","0","0","131","0","131","131","131","0","Mon Dec 15 20:04:48 2025","The main experiment item","False","stroop_task.osexp","C:\Users\jobay\Downloads","False","mono","False","25","80","40","no","white","no","yes","768","legacy","131","131","G:\class task\subject-2.csv","xpyriment","2","1","Neonatal Nightingale","4.1.6","0","q","NA","space","q","732.0","NA","21974","732","7007","space","2","legacy","1024","2","48000","-16","experiment","2","even","246620","245915","30043","NA","1054","246117","8069","246620","247353","245910","1059","STROOP_task","129","88025.0","132","1024"
"97","97","666","666","#3d3846","xpyriment","legacy","legacy","c","1","undefined","1","q","undefined","132","132","0","0","0","132","0","132","132","132","0","Mon Dec 15 20:04:48 2025","The main experiment item","False","stroop_task.osexp","C:\Users\jobay\Downloads","False","mono","False","25","80","40","no","white","no","yes","768","legacy","132","132","G:\class task\subject-2.csv","xpyriment","7","6","Neonatal Nightingale","4.1.6","0","q","NA","space","q","648.0","NA","21974","648","7007","space","2","legacy","1024","2","48000","-16","experiment","2","even","248363","247659","30043","NA","1054","247861","8069","248363","249012","247655","1059","STROOP_task","130","88673.0","133","1024"
"97","97","665","665","#3d3846","xpyriment","legacy","legacy","c","1","undefined","1","q","undefined","133","133","0","0","0","133","0","133","133","133","0","Mon Dec 15 20:04:48 2025","The main experiment item","False","stroop_task.osexp","C:\Users\jobay\Downloads","False","mono","False","25","80","40","no","white","no","yes","768","legacy","133","133","G:\class task\subject-2.csv","xpyriment","9","4","Neonatal Nightingale","4.1.6","0","q","NA","space","q","480.0","NA","21974","480","7007","space","2","legacy","1024","2","48000","-16","experiment","2","even","249997","249292","30043","NA","1054","249494","8069","249997","250478","249287","1059","STROOP_task","131","89153.0","134","1024"
"97","97","664","664","#3d3846","xpyriment","legacy","legacy","c","1","undefined","1","p","undefined","134","134","0","0","0","134","0","134","134","134","0","Mon Dec 15 20:04:48 2025","The main experiment item","False","stroop_task.osexp","C:\Users\jobay\Downloads","False","mono","False","25","40","80","no","white","no","yes","768","legacy","134","134","G:\class task\subject-2.csv","xpyriment","4","9","Neonatal Nightingale","4.1.6","0","p","NA","space","p","568.0","NA","21974","568","7007","space","2","legacy","1024","2","48000","-16","experiment","2","even","251467","250761","30043","NA","1054","250964","8069","251467","252036","250756","1059","STROOP_task","132","89721.0","135","1024"
"97","97","665","665","#3d3846","xpyriment","legacy","legacy","n","1","undefined","1","q","undefined","135","135","0","0","0","135","0","135","135","135","0","Mon Dec 15 20:04:48 2025","The main experiment item","False","stroop_task.osexp","C:\Users\jobay\Downloads","False","mono","False","25","60","60","no","white","no","yes","768","legacy","135","135","G:\class task\subject-2.csv","xpyriment","4","3","Neonatal Nightingale","4.1.6","0","q","NA","space","q","792.0","NA","21974","792","7007","space","2","legacy","1024","2","48000","-16","experiment","2","even","253031","252327","30043","NA","1054","252529","8069","253031","253824","252322","1059","STROOP_task","133","90513.0","136","1024"
"97","97","664","664","#3d3846","xpyriment","legacy","legacy","i","1","undefined","1","q","undefined","136","136","0","0","0","136","0","136","136","136","0","Mon Dec 15 20:04:48 2025","The main experiment item","False","stroop_task.osexp","C:\Users\jobay\Downloads","False","mono","False","25","40","80","no","white","no","yes","768","legacy","136","136","G:\class task\subject-2.csv","xpyriment","4","3","Neonatal Nightingale","4.1.6","0","q","NA","space","q","578.0","NA","21974","578","7007","space","2","legacy","1024","2","48000","-16","experiment","2","even","254822","254116","30043","NA","1054","254318","8069","254822","255401","254112","1059","STROOP_task","134","91091.0","137","1024"
"97","97","664","664","#3d3846","xpyriment","legacy","legacy","n","1","undefined","1","p","undefined","137","137","0","0","0","137","0","137","137","137","0","Mon Dec 15 20:04:48 2025","The main experiment item","False","stroop_task.osexp","C:\Users\jobay\Downloads","False","mono","False","25","60","60","no","white","no","yes","768","legacy","137","137","G:\class task\subject-2.csv","xpyriment","2","7","Neonatal Nightingale","4.1.6","0","p","NA","space","p","547.0","NA","21974","547","7007","space","2","legacy","1024","2","48000","-16","experiment","2","even","256390","255684","30043","NA","1054","255887","8069","256390","256938","255680","1059","STROOP_task","135","91638.0","138","1024"
"97","97","662","662","#3d3846","xpyriment","legacy","legacy","n","1","undefined","1","p","undefined","138","138","0","0","0","138","0","138","138","138","0","Mon Dec 15 20:04:48 2025","The main experiment item","False","stroop_task.osexp","C:\Users\jobay\Downloads","False","mono","False","25","60","60","no","white","no","yes","768","legacy","138","138","G:\class task\subject-2.csv","xpyriment","1","6","Neonatal Nightingale","4.1.6","0","p","NA","space","p","481.0","NA","21974","481","7007","space","2","legacy","1024","2","48000","-16","experiment","2","even","257976","257271","30043","NA","1054","257474","8069","257976","258458","257266","1059","STROOP_task","136","92119.0","139","1024"
"97","97","662","662","#3d3846","xpyriment","legacy","legacy","n","1","undefined","1","q","undefined","139","139","0","0","0","139","0","139","139","139","0","Mon Dec 15 20:04:48 2025","The main experiment item","False","stroop_task.osexp","C:\Users\jobay\Downloads","False","mono","False","25","60","60","no","white","no","yes","768","legacy","139","139","G:\class task\subject-2.csv","xpyriment","4","3","Neonatal Nightingale","4.1.6","0","q","NA","space","q","599.0","NA","21974","599","7007","space","2","legacy","1024","2","48000","-16","experiment","2","even","259371","258665","30043","NA","1054","258868","8069","259371","259971","258661","1059","STROOP_task","137","92718.0","140","1024"
"97","97","660","660","#3d3846","xpyriment","legacy","legacy","n","1","undefined","1","p","undefined","140","140","0","0","0","140","0","140","140","140","0","Mon Dec 15 20:04:48 2025","The main experiment item","False","stroop_task.osexp","C:\Users\jobay\Downloads","False","mono","False","25","60","60","no","white","no","yes","768","legacy","140","140","G:\class task\subject-2.csv","xpyriment","1","6","Neonatal Nightingale","4.1.6","0","p","NA","space","p","443.0","NA","21974","443","7007","space","2","legacy","1024","2","48000","-16","experiment","2","even","260929","260223","30043","NA","1054","260426","8069","260929","261374","260219","1059","STROOP_task","138","93161.0","141","1024"
"97","97","659","659","#3d3846","xpyriment","legacy","legacy","n","1","undefined","1","p","undefined","141","141","0","0","0","141","0","141","141","141","0","Mon Dec 15 20:04:48 2025","The main experiment item","False","stroop_task.osexp","C:\Users\jobay\Downloads","False","mono","False","25","60","60","no","white","no","yes","768","legacy","141","141","G:\class task\subject-2.csv","xpyriment","1","2","Neonatal Nightingale","4.1.6","0","p","NA","space","p","475.0","NA","21974","475","7007","space","2","legacy","1024","2","48000","-16","experiment","2","even","262341","261635","30043","NA","1054","261838","8069","262341","262817","261631","1059","STROOP_task","139","93636.0","142","1024"
"97","97","657","657","#3d3846","xpyriment","legacy","legacy","c","1","undefined","1","p","undefined","142","142","0","0","0","142","0","142","142","142","0","Mon Dec 15 20:04:48 2025","The main experiment item","False","stroop_task.osexp","C:\Users\jobay\Downloads","False","mono","False","25","40","80","no","white","no","yes","768","legacy","142","142","G:\class task\subject-2.csv","xpyriment","1","2","Neonatal Nightingale","4.1.6","0","p","NA","space","p","428.0","NA","21974","428","7007","space","2","legacy","1024","2","48000","-16","experiment","2","even","263777","263072","30043","NA","1054","263275","8069","263777","264206","263068","1059","STROOP_task","140","94064.0","143","1024"
