"acc","accuracy","average_response_time","avg_rt","background","canvas_backend","clock_backend","color_backend","condition","correct","correct_intructions","correct_key_response","correct_resp","correct_welcome_message","count_Number","count_blank","count_block_loop","count_end_message","count_experiment","count_fixation","count_intructions","count_key_response","count_logger","count_trial_sequence","count_welcome_message","datetime","description","disable_garbage_collection","experiment_file","experiment_path","font_bold","font_family","font_italic","font_size","font_size_left","font_size_right","font_underline","foreground","form_clicks","fullscreen","height","keyboard_backend","live_row","live_row_block_loop","logfile","mouse_backend","number_left","number_right","opensesame_codename","opensesame_version","repeat_cycle","response","response_end_message","response_intructions","response_key_response","response_time","response_time_end_message","response_time_intructions","response_time_key_response","response_time_welcome_message","response_welcome_message","round_decimals","sampler_backend","sound_buf_size","sound_channels","sound_freq","sound_sample_size","start","subject_nr","subject_parity","time_Number","time_blank","time_block_loop","time_end_message","time_experiment","time_fixation","time_intructions","time_key_response","time_logger","time_trial_sequence","time_welcome_message","title","total_correct","total_response_time","total_responses","width"
"100","100","11072","11072","#3d3846","xpyriment","legacy","legacy","n","1","undefined","1","q","undefined","0","0","0","0","0","0","0","0","0","0","0","Mon Dec 15 20:21:06 2025","The main experiment item","False","stroop_task.osexp","C:\Users\jobay\Downloads","False","mono","False","25","60","60","no","white","no","yes","768","legacy","0","0","G:\class task\subject-4.csv","xpyriment","2","1","Neonatal Nightingale","4.1.6","0","q","NA","space","q","11072.0","NA","1488","11072","890103","space","2","legacy","1024","2","48000","-16","experiment","4","even","893842","893138","892902","NA","1080","893340","891414","893842","904914","893134","1085","STROOP_task","1","11072.0","1","1024"
"100","100","6349","6349","#3d3846","xpyriment","legacy","legacy","n","1","undefined","1","q","undefined","1","1","0","0","0","1","0","1","1","1","0","Mon Dec 15 20:21:06 2025","The main experiment item","False","stroop_task.osexp","C:\Users\jobay\Downloads","False","mono","False","25","60","60","no","white","no","yes","768","legacy","1","1","G:\class task\subject-4.csv","xpyriment","9","8","Neonatal Nightingale","4.1.6","0","q","NA","space","q","1626.0","NA","1488","1626","890103","space","2","legacy","1024","2","48000","-16","experiment","4","even","906202","905498","892902","NA","1080","905700","891414","906202","907828","905494","1085","STROOP_task","2","12698.0","2","1024"
"100","100","7061","7061","#3d3846","xpyriment","legacy","legacy","i","1","undefined","1","q","undefined","2","2","0","0","0","2","0","2","2","2","0","Mon Dec 15 20:21:06 2025","The main experiment item","False","stroop_task.osexp","C:\Users\jobay\Downloads","False","mono","False","25","40","80","no","white","no","yes","768","legacy","2","2","G:\class task\subject-4.csv","xpyriment","2","1","Neonatal Nightingale","4.1.6","0","q","NA","space","q","8487.0","NA","1488","8487","890103","space","2","legacy","1024","2","48000","-16","experiment","4","even","908792","908088","892902","NA","1080","908290","891414","908792","917279","908083","1085","STROOP_task","3","21185.0","3","1024"
"100","100","5466","5466","#3d3846","xpyriment","legacy","legacy","c","1","undefined","1","q","undefined","3","3","0","0","0","3","0","3","3","3","0","Mon Dec 15 20:21:06 2025","The main experiment item","False","stroop_task.osexp","C:\Users\jobay\Downloads","False","mono","False","25","80","40","no","white","no","yes","768","legacy","3","3","G:\class task\subject-4.csv","xpyriment","4","3","Neonatal Nightingale","4.1.6","0","q","NA","space","q","679.0","NA","1488","679","890103","space","2","legacy","1024","2","48000","-16","experiment","4","even","918256","917552","892902","NA","1080","917754","891414","918256","918936","917547","1085","STROOP_task","4","21864.0","4","1024"
"100","100","4460","4460","#3d3846","xpyriment","legacy","legacy","c","1","undefined","1","q","undefined","4","4","0","0","0","4","0","4","4","4","0","Mon Dec 15 20:21:06 2025","The main experiment item","False","stroop_task.osexp","C:\Users\jobay\Downloads","False","mono","False","25","80","40","no","white","no","yes","768","legacy","4","4","G:\class task\subject-4.csv","xpyriment","2","1","Neonatal Nightingale","4.1.6","0","q","NA","space","q","439.0","NA","1488","439","890103","space","2","legacy","1024","2","48000","-16","experiment","4","even","919906","919202","892902","NA","1080","919404","891414","919906","920346","919197","1085","STROOP_task","5","22303.0","5","1024"
"100","100","3827","3827","#3d3846","xpyriment","legacy","legacy","n","1","undefined","1","p","undefined","5","5","0","0","0","5","0","5","5","5","0","Mon Dec 15 20:21:06 2025","The main experiment item","False","stroop_task.osexp","C:\Users\jobay\Downloads","False","mono","False","25","60","60","no","white","no","yes","768","legacy","5","5","G:\class task\subject-4.csv","xpyriment","8","9","Neonatal Nightingale","4.1.6","0","p","NA","space","p","664.0","NA","1488","664","890103","space","2","legacy","1024","2","48000","-16","experiment","4","even","921312","920608","892902","NA","1080","920810","891414","921312","921976","920603","1085","STROOP_task","6","22967.0","6","1024"
"100","100","3392","3392","#3d3846","xpyriment","legacy","legacy","i","1","undefined","1","q","undefined","6","6","0","0","0","6","0","6","6","6","0","Mon Dec 15 20:21:06 2025","The main experiment item","False","stroop_task.osexp","C:\Users\jobay\Downloads","False","mono","False","25","40","80","no","white","no","yes","768","legacy","6","6","G:\class task\subject-4.csv","xpyriment","4","3","Neonatal Nightingale","4.1.6","0","q","NA","space","q","781.0","NA","1488","781","890103","space","2","legacy","1024","2","48000","-16","experiment","4","even","922880","922176","892902","NA","1080","922378","891414","922880","923662","922171","1085","STROOP_task","7","23748.0","7","1024"
"100","100","3097","3097","#3d3846","xpyriment","legacy","legacy","n","1","undefined","1","p","undefined","7","7","0","0","0","7","0","7","7","7","0","Mon Dec 15 20:21:06 2025","The main experiment item","False","stroop_task.osexp","C:\Users\jobay\Downloads","False","mono","False","25","60","60","no","white","no","yes","768","legacy","7","7","G:\class task\subject-4.csv","xpyriment","1","6","Neonatal Nightingale","4.1.6","0","p","NA","space","p","1028.0","NA","1488","1028","890103","space","2","legacy","1024","2","48000","-16","experiment","4","even","924598","923894","892902","NA","1080","924096","891414","924598","925626","923889","1085","STROOP_task","8","24776.0","8","1024"
"100","100","2860","2860","#3d3846","xpyriment","legacy","legacy","i","1","undefined","1","p","undefined","8","8","0","0","0","8","0","8","8","8","0","Mon Dec 15 20:21:06 2025","The main experiment item","False","stroop_task.osexp","C:\Users\jobay\Downloads","False","mono","False","25","80","40","no","white","no","yes","768","legacy","8","8","G:\class task\subject-4.csv","xpyriment","3","4","Neonatal Nightingale","4.1.6","0","p","NA","space","p","971.0","NA","1488","971","890103","space","2","legacy","1024","2","48000","-16","experiment","4","even","926585","925881","892902","NA","1080","926083","891414","926585","927556","925876","1085","STROOP_task","9","25747.0","9","1024"
"100","100","2640","2640","#3d3846","xpyriment","legacy","legacy","n","1","undefined","1","p","undefined","9","9","0","0","0","9","0","9","9","9","0","Mon Dec 15 20:21:06 2025","The main experiment item","False","stroop_task.osexp","C:\Users\jobay\Downloads","False","mono","False","25","60","60","no","white","no","yes","768","legacy","9","9","G:\class task\subject-4.csv","xpyriment","3","4","Neonatal Nightingale","4.1.6","0","p","NA","space","p","658.0","NA","1488","658","890103","space","2","legacy","1024","2","48000","-16","experiment","4","even","928536","927832","892902","NA","1080","928034","891414","928536","929194","927827","1085","STROOP_task","10","26405.0","10","1024"
"100","100","2452","2452","#3d3846","xpyriment","legacy","legacy","c","1","undefined","1","q","undefined","10","10","0","0","0","10","0","10","10","10","0","Mon Dec 15 20:21:06 2025","The main experiment item","False","stroop_task.osexp","C:\Users\jobay\Downloads","False","mono","False","25","80","40","no","white","no","yes","768","legacy","10","10","G:\class task\subject-4.csv","xpyriment","2","1","Neonatal Nightingale","4.1.6","0","q","NA","space","q","574.0","NA","1488","574","890103","space","2","legacy","1024","2","48000","-16","experiment","4","even","930166","929462","892902","NA","1080","929664","891414","930166","930741","929457","1085","STROOP_task","11","26979.0","11","1024"
"100","100","2306","2306","#3d3846","xpyriment","legacy","legacy","n","1","undefined","1","q","undefined","11","11","0","0","0","11","0","11","11","11","0","Mon Dec 15 20:21:06 2025","The main experiment item","False","stroop_task.osexp","C:\Users\jobay\Downloads","False","mono","False","25","60","60","no","white","no","yes","768","legacy","11","11","G:\class task\subject-4.csv","xpyriment","8","3","Neonatal Nightingale","4.1.6","0","q","NA","space","q","701.0","NA","1488","701","890103","space","2","legacy","1024","2","48000","-16","experiment","4","even","931703","930999","892902","NA","1080","931201","891414","931703","932404","930994","1085","STROOP_task","12","27680.0","12","1024"
"100","100","2165","2165","#3d3846","xpyriment","legacy","legacy","c","1","undefined","1","q","undefined","12","12","0","0","0","12","0","12","12","12","0","Mon Dec 15 20:21:06 2025","The main experiment item","False","stroop_task.osexp","C:\Users\jobay\Downloads","False","mono","False","25","80","40","no","white","no","yes","768","legacy","12","12","G:\class task\subject-4.csv","xpyriment","8","3","Neonatal Nightingale","4.1.6","0","q","NA","space","q","466.0","NA","1488","466","890103","space","2","legacy","1024","2","48000","-16","experiment","4","even","933377","932673","892902","NA","1080","932875","891414","933377","933844","932669","1085","STROOP_task","13","28146.0","13","1024"
"100","100","2059","2059","#3d3846","xpyriment","legacy","legacy","i","1","undefined","1","q","undefined","13","13","0","0","0","13","0","13","13","13","0","Mon Dec 15 20:21:06 2025","The main experiment item","False","stroop_task.osexp","C:\Users\jobay\Downloads","False","mono","False","25","40","80","no","white","no","yes","768","legacy","13","13","G:\class task\subject-4.csv","xpyriment","4","3","Neonatal Nightingale","4.1.6","0","q","NA","space","q","681.0","NA","1488","681","890103","space","2","legacy","1024","2","48000","-16","experiment","4","even","934825","934121","892902","NA","1080","934323","891414","934825","935507","934117","1085","STROOP_task","14","28827.0","14","1024"
"100","100","1965","1965","#3d3846","xpyriment","legacy","legacy","i","1","undefined","1","p","undefined","14","14","0","0","0","14","0","14","14","14","0","Mon Dec 15 20:21:06 2025","The main experiment item","False","stroop_task.osexp","C:\Users\jobay\Downloads","False","mono","False","25","80","40","no","white","no","yes","768","legacy","14","14","G:\class task\subject-4.csv","xpyriment","3","4","Neonatal Nightingale","4.1.6","0","p","NA","space","p","660.0","NA","1488","660","890103","space","2","legacy","1024","2","48000","-16","experiment","4","even","936473","935769","892902","NA","1080","935971","891414","936473","937134","935764","1085","STROOP_task","15","29487.0","15","1024"
"100","100","1875","1875","#3d3846","xpyriment","legacy","legacy","i","1","undefined","1","q","undefined","15","15","0","0","0","15","0","15","15","15","0","Mon Dec 15 20:21:06 2025","The main experiment item","False","stroop_task.osexp","C:\Users\jobay\Downloads","False","mono","False","25","40","80","no","white","no","yes","768","legacy","15","15","G:\class task\subject-4.csv","xpyriment","6","1","Neonatal Nightingale","4.1.6","0","q","NA","space","q","518.0","NA","1488","518","890103","space","2","legacy","1024","2","48000","-16","experiment","4","even","938106","937402","892902","NA","1080","937604","891414","938106","938625","937397","1085","STROOP_task","16","30005.0","16","1024"
"100","100","1798","1798","#3d3846","xpyriment","legacy","legacy","c","1","undefined","1","q","undefined","16","16","0","0","0","16","0","16","16","16","0","Mon Dec 15 20:21:06 2025","The main experiment item","False","stroop_task.osexp","C:\Users\jobay\Downloads","False","mono","False","25","80","40","no","white","no","yes","768","legacy","16","16","G:\class task\subject-4.csv","xpyriment","8","3","Neonatal Nightingale","4.1.6","0","q","NA","space","q","564.0","NA","1488","564","890103","space","2","legacy","1024","2","48000","-16","experiment","4","even","939613","938909","892902","NA","1080","939111","891414","939613","940178","938905","1085","STROOP_task","17","30569.0","17","1024"
"100","100","1726","1726","#3d3846","xpyriment","legacy","legacy","c","1","undefined","1","q","undefined","17","17","0","0","0","17","0","17","17","17","0","Mon Dec 15 20:21:06 2025","The main experiment item","False","stroop_task.osexp","C:\Users\jobay\Downloads","False","mono","False","25","80","40","no","white","no","yes","768","legacy","17","17","G:\class task\subject-4.csv","xpyriment","2","1","Neonatal Nightingale","4.1.6","0","q","NA","space","q","502.0","NA","1488","502","890103","space","2","legacy","1024","2","48000","-16","experiment","4","even","941164","940460","892902","NA","1080","940662","891414","941164","941666","940455","1085","STROOP_task","18","31071.0","18","1024"
"100","100","1659","1659","#3d3846","xpyriment","legacy","legacy","n","1","undefined","1","p","undefined","18","18","0","0","0","18","0","18","18","18","0","Mon Dec 15 20:21:06 2025","The main experiment item","False","stroop_task.osexp","C:\Users\jobay\Downloads","False","mono","False","25","60","60","no","white","no","yes","768","legacy","18","18","G:\class task\subject-4.csv","xpyriment","1","2","Neonatal Nightingale","4.1.6","0","p","NA","space","p","468.0","NA","1488","468","890103","space","2","legacy","1024","2","48000","-16","experiment","4","even","942710","942006","892902","NA","1080","942208","891414","942710","943179","942002","1085","STROOP_task","19","31539.0","19","1024"
"100","100","1608","1608","#3d3846","xpyriment","legacy","legacy","n","1","undefined","1","p","undefined","19","19","0","0","0","19","0","19","19","19","0","Mon Dec 15 20:21:06 2025","The main experiment item","False","stroop_task.osexp","C:\Users\jobay\Downloads","False","mono","False","25","60","60","no","white","no","yes","768","legacy","19","19","G:\class task\subject-4.csv","xpyriment","4","9","Neonatal Nightingale","4.1.6","0","p","NA","space","p","621.0","NA","1488","621","890103","space","2","legacy","1024","2","48000","-16","experiment","4","even","944186","943482","892902","NA","1080","943684","891414","944186","944807","943478","1085","STROOP_task","20","32160.0","20","1024"
"100","100","1553","1553","#3d3846","xpyriment","legacy","legacy","c","1","undefined","1","p","undefined","20","20","0","0","0","20","0","20","20","20","0","Mon Dec 15 20:21:06 2025","The main experiment item","False","stroop_task.osexp","C:\Users\jobay\Downloads","False","mono","False","25","40","80","no","white","no","yes","768","legacy","20","20","G:\class task\subject-4.csv","xpyriment","1","2","Neonatal Nightingale","4.1.6","0","p","NA","space","p","463.0","NA","1488","463","890103","space","2","legacy","1024","2","48000","-16","experiment","4","even","945754","945050","892902","NA","1080","945252","891414","945754","946218","945046","1085","STROOP_task","21","32623.0","21","1024"
"95","95","1500","1500","#3d3846","xpyriment","legacy","legacy","i","0","undefined","0","p","undefined","21","21","0","0","0","21","0","21","21","21","0","Mon Dec 15 20:21:06 2025","The main experiment item","False","stroop_task.osexp","C:\Users\jobay\Downloads","False","mono","False","25","80","40","no","white","no","yes","768","legacy","21","21","G:\class task\subject-4.csv","xpyriment","8","9","Neonatal Nightingale","4.1.6","0","q","NA","space","q","382.0","NA","1488","382","890103","space","2","legacy","1024","2","48000","-16","experiment","4","even","947175","946471","892902","NA","1080","946673","891414","947175","947558","946467","1085","STROOP_task","21","33005.0","22","1024"
"95","95","1466","1466","#3d3846","xpyriment","legacy","legacy","n","1","undefined","1","p","undefined","22","22","0","0","0","22","0","22","22","22","0","Mon Dec 15 20:21:06 2025","The main experiment item","False","stroop_task.osexp","C:\Users\jobay\Downloads","False","mono","False","25","60","60","no","white","no","yes","768","legacy","22","22","G:\class task\subject-4.csv","xpyriment","2","7","Neonatal Nightingale","4.1.6","0","p","NA","space","p","735.0","NA","1488","735","890103","space","2","legacy","1024","2","48000","-16","experiment","4","even","948502","947798","892902","NA","1080","948000","891414","948502","949237","947794","1085","STROOP_task","22","33740.0","23","1024"
"95","95","1431","1431","#3d3846","xpyriment","legacy","legacy","i","1","undefined","1","p","undefined","23","23","0","0","0","23","0","23","23","23","0","Mon Dec 15 20:21:06 2025","The main experiment item","False","stroop_task.osexp","C:\Users\jobay\Downloads","False","mono","False","25","80","40","no","white","no","yes","768","legacy","23","23","G:\class task\subject-4.csv","xpyriment","3","4","Neonatal Nightingale","4.1.6","0","p","NA","space","p","624.0","NA","1488","624","890103","space","2","legacy","1024","2","48000","-16","experiment","4","even","950174","949470","892902","NA","1080","949672","891414","950174","950798","949466","1085","STROOP_task","23","34364.0","24","1024"
"96","96","1402","1402","#3d3846","xpyriment","legacy","legacy","n","1","undefined","1","q","undefined","24","24","0","0","0","24","0","24","24","24","0","Mon Dec 15 20:21:06 2025","The main experiment item","False","stroop_task.osexp","C:\Users\jobay\Downloads","False","mono","False","25","60","60","no","white","no","yes","768","legacy","24","24","G:\class task\subject-4.csv","xpyriment","7","6","Neonatal Nightingale","4.1.6","0","q","NA","space","q","696.0","NA","1488","696","890103","space","2","legacy","1024","2","48000","-16","experiment","4","even","951747","951043","892902","NA","1080","951245","891414","951747","952444","951038","1085","STROOP_task","24","35060.0","25","1024"
"96","96","1382","1382","#3d3846","xpyriment","legacy","legacy","i","1","undefined","1","q","undefined","25","25","0","0","0","25","0","25","25","25","0","Mon Dec 15 20:21:06 2025","The main experiment item","False","stroop_task.osexp","C:\Users\jobay\Downloads","False","mono","False","25","40","80","no","white","no","yes","768","legacy","25","25","G:\class task\subject-4.csv","xpyriment","9","4","Neonatal Nightingale","4.1.6","0","q","NA","space","q","877.0","NA","1488","877","890103","space","2","legacy","1024","2","48000","-16","experiment","4","even","953384","952680","892902","NA","1080","952882","891414","953384","954262","952675","1085","STROOP_task","25","35937.0","26","1024"
"96","96","1352","1352","#3d3846","xpyriment","legacy","legacy","i","1","undefined","1","p","undefined","26","26","0","0","0","26","0","26","26","26","0","Mon Dec 15 20:21:06 2025","The main experiment item","False","stroop_task.osexp","C:\Users\jobay\Downloads","False","mono","False","25","80","40","no","white","no","yes","768","legacy","26","26","G:\class task\subject-4.csv","xpyriment","1","6","Neonatal Nightingale","4.1.6","0","p","NA","space","p","575.0","NA","1488","575","890103","space","2","legacy","1024","2","48000","-16","experiment","4","even","955223","954519","892902","NA","1080","954721","891414","955223","955798","954514","1085","STROOP_task","26","36512.0","27","1024"
"92","92","1319","1319","#3d3846","xpyriment","legacy","legacy","i","0","undefined","0","p","undefined","27","27","0","0","0","27","0","27","27","27","0","Mon Dec 15 20:21:06 2025","The main experiment item","False","stroop_task.osexp","C:\Users\jobay\Downloads","False","mono","False","25","80","40","no","white","no","yes","768","legacy","27","27","G:\class task\subject-4.csv","xpyriment","6","7","Neonatal Nightingale","4.1.6","0","q","NA","space","q","424.0","NA","1488","424","890103","space","2","legacy","1024","2","48000","-16","experiment","4","even","956752","956048","892902","NA","1080","956250","891414","956752","957176","956044","1085","STROOP_task","26","36936.0","28","1024"
"93","93","1302","1302","#3d3846","xpyriment","legacy","legacy","n","1","undefined","1","q","undefined","28","28","0","0","0","28","0","28","28","28","0","Mon Dec 15 20:21:06 2025","The main experiment item","False","stroop_task.osexp","C:\Users\jobay\Downloads","False","mono","False","25","60","60","no","white","no","yes","768","legacy","28","28","G:\class task\subject-4.csv","xpyriment","4","3","Neonatal Nightingale","4.1.6","0","q","NA","space","q","842.0","NA","1488","842","890103","space","2","legacy","1024","2","48000","-16","experiment","4","even","958082","957378","892902","NA","1080","957580","891414","958082","958924","957374","1085","STROOP_task","27","37778.0","29","1024"
"93","93","1290","1290","#3d3846","xpyriment","legacy","legacy","i","1","undefined","1","q","undefined","29","29","0","0","0","29","0","29","29","29","0","Mon Dec 15 20:21:06 2025","The main experiment item","False","stroop_task.osexp","C:\Users\jobay\Downloads","False","mono","False","25","40","80","no","white","no","yes","768","legacy","29","29","G:\class task\subject-4.csv","xpyriment","7","6","Neonatal Nightingale","4.1.6","0","q","NA","space","q","944.0","NA","1488","944","890103","space","2","legacy","1024","2","48000","-16","experiment","4","even","959861","959157","892902","NA","1080","959359","891414","959861","960805","959153","1085","STROOP_task","28","38722.0","30","1024"
"93","93","1271","1271","#3d3846","xpyriment","legacy","legacy","i","1","undefined","1","p","undefined","30","30","0","0","0","30","0","30","30","30","0","Mon Dec 15 20:21:06 2025","The main experiment item","False","stroop_task.osexp","C:\Users\jobay\Downloads","False","mono","False","25","80","40","no","white","no","yes","768","legacy","30","30","G:\class task\subject-4.csv","xpyriment","6","7","Neonatal Nightingale","4.1.6","0","p","NA","space","p","695.0","NA","1488","695","890103","space","2","legacy","1024","2","48000","-16","experiment","4","even","961769","961065","892902","NA","1080","961267","891414","961769","962464","961061","1085","STROOP_task","29","39417.0","31","1024"
"93","93","1253","1253","#3d3846","xpyriment","legacy","legacy","c","1","undefined","1","p","undefined","31","31","0","0","0","31","0","31","31","31","0","Mon Dec 15 20:21:06 2025","The main experiment item","False","stroop_task.osexp","C:\Users\jobay\Downloads","False","mono","False","25","40","80","no","white","no","yes","768","legacy","31","31","G:\class task\subject-4.csv","xpyriment","8","9","Neonatal Nightingale","4.1.6","0","p","NA","space","p","685.0","NA","1488","685","890103","space","2","legacy","1024","2","48000","-16","experiment","4","even","963493","962789","892902","NA","1080","962991","891414","963493","964179","962785","1085","STROOP_task","30","40102.0","32","1024"
"93","93","1232","1232","#3d3846","xpyriment","legacy","legacy","n","1","undefined","1","q","undefined","32","32","0","0","0","32","0","32","32","32","0","Mon Dec 15 20:21:06 2025","The main experiment item","False","stroop_task.osexp","C:\Users\jobay\Downloads","False","mono","False","25","60","60","no","white","no","yes","768","legacy","32","32","G:\class task\subject-4.csv","xpyriment","7","2","Neonatal Nightingale","4.1.6","0","q","NA","space","q","572.0","NA","1488","572","890103","space","2","legacy","1024","2","48000","-16","experiment","4","even","965165","964461","892902","NA","1080","964663","891414","965165","965738","964457","1085","STROOP_task","31","40674.0","33","1024"
"94","94","1215","1215","#3d3846","xpyriment","legacy","legacy","c","1","undefined","1","p","undefined","33","33","0","0","0","33","0","33","33","33","0","Mon Dec 15 20:21:06 2025","The main experiment item","False","stroop_task.osexp","C:\Users\jobay\Downloads","False","mono","False","25","40","80","no","white","no","yes","768","legacy","33","33","G:\class task\subject-4.csv","xpyriment","4","9","Neonatal Nightingale","4.1.6","0","p","NA","space","p","666.0","NA","1488","666","890103","space","2","legacy","1024","2","48000","-16","experiment","4","even","966715","966011","892902","NA","1080","966213","891414","966715","967381","966006","1085","STROOP_task","32","41340.0","34","1024"
"94","94","1200","1200","#3d3846","xpyriment","legacy","legacy","i","1","undefined","1","q","undefined","34","34","0","0","0","34","0","34","34","34","0","Mon Dec 15 20:21:06 2025","The main experiment item","False","stroop_task.osexp","C:\Users\jobay\Downloads","False","mono","False","25","40","80","no","white","no","yes","768","legacy","34","34","G:\class task\subject-4.csv","xpyriment","9","8","Neonatal Nightingale","4.1.6","0","q","NA","space","q","664.0","NA","1488","664","890103","space","2","legacy","1024","2","48000","-16","experiment","4","even","968295","967591","892902","NA","1080","967793","891414","968295","968960","967586","1085","STROOP_task","33","42004.0","35","1024"
"94","94","1186","1186","#3d3846","xpyriment","legacy","legacy","n","1","undefined","1","p","undefined","35","35","0","0","0","35","0","35","35","35","0","Mon Dec 15 20:21:06 2025","The main experiment item","False","stroop_task.osexp","C:\Users\jobay\Downloads","False","mono","False","25","60","60","no","white","no","yes","768","legacy","35","35","G:\class task\subject-4.csv","xpyriment","3","8","Neonatal Nightingale","4.1.6","0","p","NA","space","p","696.0","NA","1488","696","890103","space","2","legacy","1024","2","48000","-16","experiment","4","even","969969","969265","892902","NA","1080","969467","891414","969969","970666","969260","1085","STROOP_task","34","42700.0","36","1024"
"94","94","1170","1170","#3d3846","xpyriment","legacy","legacy","i","1","undefined","1","p","undefined","36","36","0","0","0","36","0","36","36","36","0","Mon Dec 15 20:21:06 2025","The main experiment item","False","stroop_task.osexp","C:\Users\jobay\Downloads","False","mono","False","25","80","40","no","white","no","yes","768","legacy","36","36","G:\class task\subject-4.csv","xpyriment","2","7","Neonatal Nightingale","4.1.6","0","p","NA","space","p","622.0","NA","1488","622","890103","space","2","legacy","1024","2","48000","-16","experiment","4","even","971619","970915","892902","NA","1080","971117","891414","971619","972242","970910","1085","STROOP_task","35","43322.0","37","1024"
"94","94","1151","1151","#3d3846","xpyriment","legacy","legacy","c","1","undefined","1","q","undefined","37","37","0","0","0","37","0","37","37","37","0","Mon Dec 15 20:21:06 2025","The main experiment item","False","stroop_task.osexp","C:\Users\jobay\Downloads","False","mono","False","25","80","40","no","white","no","yes","768","legacy","37","37","G:\class task\subject-4.csv","xpyriment","9","8","Neonatal Nightingale","4.1.6","0","q","NA","space","q","445.0","NA","1488","445","890103","space","2","legacy","1024","2","48000","-16","experiment","4","even","973186","972482","892902","NA","1080","972684","891414","973186","973632","972477","1085","STROOP_task","36","43767.0","38","1024"
"94","94","1141","1141","#3d3846","xpyriment","legacy","legacy","i","1","undefined","1","q","undefined","38","38","0","0","0","38","0","38","38","38","0","Mon Dec 15 20:21:06 2025","The main experiment item","False","stroop_task.osexp","C:\Users\jobay\Downloads","False","mono","False","25","40","80","no","white","no","yes","768","legacy","38","38","G:\class task\subject-4.csv","xpyriment","8","3","Neonatal Nightingale","4.1.6","0","q","NA","space","q","756.0","NA","1488","756","890103","space","2","legacy","1024","2","48000","-16","experiment","4","even","974592","973888","892902","NA","1080","974090","891414","974592","975348","973884","1085","STROOP_task","37","44523.0","39","1024"
"95","95","1129","1129","#3d3846","xpyriment","legacy","legacy","i","1","undefined","1","p","undefined","39","39","0","0","0","39","0","39","39","39","0","Mon Dec 15 20:21:06 2025","The main experiment item","False","stroop_task.osexp","C:\Users\jobay\Downloads","False","mono","False","25","80","40","no","white","no","yes","768","legacy","39","39","G:\class task\subject-4.csv","xpyriment","1","2","Neonatal Nightingale","4.1.6","0","p","NA","space","p","666.0","NA","1488","666","890103","space","2","legacy","1024","2","48000","-16","experiment","4","even","976306","975601","892902","NA","1080","975804","891414","976306","976972","975597","1085","STROOP_task","38","45189.0","40","1024"
"92","92","1112","1112","#3d3846","xpyriment","legacy","legacy","i","0","undefined","0","p","undefined","40","40","0","0","0","40","0","40","40","40","0","Mon Dec 15 20:21:06 2025","The main experiment item","False","stroop_task.osexp","C:\Users\jobay\Downloads","False","mono","False","25","80","40","no","white","no","yes","768","legacy","40","40","G:\class task\subject-4.csv","xpyriment","4","9","Neonatal Nightingale","4.1.6","0","q","NA","space","q","425.0","NA","1488","425","890103","space","2","legacy","1024","2","48000","-16","experiment","4","even","977925","977221","892902","NA","1080","977423","891414","977925","978351","977217","1085","STROOP_task","38","45614.0","41","1024"
"92","92","1101","1101","#3d3846","xpyriment","legacy","legacy","c","1","undefined","1","q","undefined","41","41","0","0","0","41","0","41","41","41","0","Mon Dec 15 20:21:06 2025","The main experiment item","False","stroop_task.osexp","C:\Users\jobay\Downloads","False","mono","False","25","80","40","no","white","no","yes","768","legacy","41","41","G:\class task\subject-4.csv","xpyriment","2","1","Neonatal Nightingale","4.1.6","0","q","NA","space","q","659.0","NA","1488","659","890103","space","2","legacy","1024","2","48000","-16","experiment","4","even","979323","978617","892902","NA","1080","978819","891414","979323","979982","978613","1085","STROOP_task","39","46273.0","42","1024"
"93","93","1092","1092","#3d3846","xpyriment","legacy","legacy","n","1","undefined","1","p","undefined","42","42","0","0","0","42","0","42","42","42","0","Mon Dec 15 20:21:06 2025","The main experiment item","False","stroop_task.osexp","C:\Users\jobay\Downloads","False","mono","False","25","60","60","no","white","no","yes","768","legacy","42","42","G:\class task\subject-4.csv","xpyriment","6","7","Neonatal Nightingale","4.1.6","0","p","NA","space","p","691.0","NA","1488","691","890103","space","2","legacy","1024","2","48000","-16","experiment","4","even","980928","980224","892902","NA","1080","980426","891414","980928","981620","980219","1085","STROOP_task","40","46964.0","43","1024"
"93","93","1082","1082","#3d3846","xpyriment","legacy","legacy","c","1","undefined","1","p","undefined","43","43","0","0","0","43","0","43","43","43","0","Mon Dec 15 20:21:06 2025","The main experiment item","False","stroop_task.osexp","C:\Users\jobay\Downloads","False","mono","False","25","40","80","no","white","no","yes","768","legacy","43","43","G:\class task\subject-4.csv","xpyriment","8","9","Neonatal Nightingale","4.1.6","0","p","NA","space","p","657.0","NA","1488","657","890103","space","2","legacy","1024","2","48000","-16","experiment","4","even","982570","981866","892902","NA","1080","982068","891414","982570","983228","981862","1085","STROOP_task","41","47621.0","44","1024"
"93","93","1076","1076","#3d3846","xpyriment","legacy","legacy","c","1","undefined","1","q","undefined","44","44","0","0","0","44","0","44","44","44","0","Mon Dec 15 20:21:06 2025","The main experiment item","False","stroop_task.osexp","C:\Users\jobay\Downloads","False","mono","False","25","80","40","no","white","no","yes","768","legacy","44","44","G:\class task\subject-4.csv","xpyriment","4","3","Neonatal Nightingale","4.1.6","0","q","NA","space","q","807.0","NA","1488","807","890103","space","2","legacy","1024","2","48000","-16","experiment","4","even","984134","983430","892902","NA","1080","983632","891414","984134","984942","983425","1085","STROOP_task","42","48428.0","45","1024"
"93","93","1066","1066","#3d3846","xpyriment","legacy","legacy","c","1","undefined","1","q","undefined","45","45","0","0","0","45","0","45","45","45","0","Mon Dec 15 20:21:06 2025","The main experiment item","False","stroop_task.osexp","C:\Users\jobay\Downloads","False","mono","False","25","80","40","no","white","no","yes","768","legacy","45","45","G:\class task\subject-4.csv","xpyriment","9","4","Neonatal Nightingale","4.1.6","0","q","NA","space","q","641.0","NA","1488","641","890103","space","2","legacy","1024","2","48000","-16","experiment","4","even","985885","985181","892902","NA","1080","985383","891414","985885","986527","985177","1085","STROOP_task","43","49069.0","46","1024"
"93","93","1055","1055","#3d3846","xpyriment","legacy","legacy","i","1","undefined","1","q","undefined","46","46","0","0","0","46","0","46","46","46","0","Mon Dec 15 20:21:06 2025","The main experiment item","False","stroop_task.osexp","C:\Users\jobay\Downloads","False","mono","False","25","40","80","no","white","no","yes","768","legacy","46","46","G:\class task\subject-4.csv","xpyriment","9","8","Neonatal Nightingale","4.1.6","0","q","NA","space","q","522.0","NA","1488","522","890103","space","2","legacy","1024","2","48000","-16","experiment","4","even","987494","986790","892902","NA","1080","986992","891414","987494","988017","986786","1085","STROOP_task","44","49591.0","47","1024"
"93","93","1042","1042","#3d3846","xpyriment","legacy","legacy","i","1","undefined","1","q","undefined","47","47","0","0","0","47","0","47","47","47","0","Mon Dec 15 20:21:06 2025","The main experiment item","False","stroop_task.osexp","C:\Users\jobay\Downloads","False","mono","False","25","40","80","no","white","no","yes","768","legacy","47","47","G:\class task\subject-4.csv","xpyriment","9","8","Neonatal Nightingale","4.1.6","0","q","NA","space","q","439.0","NA","1488","439","890103","space","2","legacy","1024","2","48000","-16","experiment","4","even","989020","988316","892902","NA","1080","988518","891414","989020","989460","988312","1085","STROOP_task","45","50030.0","48","1024"
"93","93","1035","1035","#3d3846","xpyriment","legacy","legacy","i","1","undefined","1","q","undefined","48","48","0","0","0","48","0","48","48","48","0","Mon Dec 15 20:21:06 2025","The main experiment item","False","stroop_task.osexp","C:\Users\jobay\Downloads","False","mono","False","25","40","80","no","white","no","yes","768","legacy","48","48","G:\class task\subject-4.csv","xpyriment","2","1","Neonatal Nightingale","4.1.6","0","q","NA","space","q","687.0","NA","1488","687","890103","space","2","legacy","1024","2","48000","-16","experiment","4","even","990425","989720","892902","NA","1080","989923","891414","990425","991112","989716","1085","STROOP_task","46","50717.0","49","1024"
"94","94","1023","1023","#3d3846","xpyriment","legacy","legacy","n","1","undefined","1","q","undefined","49","49","0","0","0","49","0","49","49","49","0","Mon Dec 15 20:21:06 2025","The main experiment item","False","stroop_task.osexp","C:\Users\jobay\Downloads","False","mono","False","25","60","60","no","white","no","yes","768","legacy","49","49","G:\class task\subject-4.csv","xpyriment","4","3","Neonatal Nightingale","4.1.6","0","q","NA","space","q","482.0","NA","1488","482","890103","space","2","legacy","1024","2","48000","-16","experiment","4","even","992078","991374","892902","NA","1080","991576","891414","992078","992561","991370","1085","STROOP_task","47","51199.0","50","1024"
"94","94","1013","1013","#3d3846","xpyriment","legacy","legacy","i","1","undefined","1","q","undefined","50","50","0","0","0","50","0","50","50","50","0","Mon Dec 15 20:21:06 2025","The main experiment item","False","stroop_task.osexp","C:\Users\jobay\Downloads","False","mono","False","25","40","80","no","white","no","yes","768","legacy","50","50","G:\class task\subject-4.csv","xpyriment","8","3","Neonatal Nightingale","4.1.6","0","q","NA","space","q","493.0","NA","1488","493","890103","space","2","legacy","1024","2","48000","-16","experiment","4","even","993538","992834","892902","NA","1080","993036","891414","993538","994032","992829","1085","STROOP_task","48","51692.0","51","1024"
"94","94","1002","1002","#3d3846","xpyriment","legacy","legacy","i","1","undefined","1","q","undefined","51","51","0","0","0","51","0","51","51","51","0","Mon Dec 15 20:21:06 2025","The main experiment item","False","stroop_task.osexp","C:\Users\jobay\Downloads","False","mono","False","25","40","80","no","white","no","yes","768","legacy","51","51","G:\class task\subject-4.csv","xpyriment","9","4","Neonatal Nightingale","4.1.6","0","q","NA","space","q","454.0","NA","1488","454","890103","space","2","legacy","1024","2","48000","-16","experiment","4","even","995039","994334","892902","NA","1080","994537","891414","995039","995493","994330","1085","STROOP_task","49","52146.0","52","1024"
"92","92","992","992","#3d3846","xpyriment","legacy","legacy","c","0","undefined","0","p","undefined","52","52","0","0","0","52","0","52","52","52","0","Mon Dec 15 20:21:06 2025","The main experiment item","False","stroop_task.osexp","C:\Users\jobay\Downloads","False","mono","False","25","40","80","no","white","no","yes","768","legacy","52","52","G:\class task\subject-4.csv","xpyriment","8","9","Neonatal Nightingale","4.1.6","0","q","NA","space","q","482.0","NA","1488","482","890103","space","2","legacy","1024","2","48000","-16","experiment","4","even","996465","995761","892902","NA","1080","995963","891414","996465","996948","995756","1085","STROOP_task","49","52628.0","53","1024"
"92","92","984","984","#3d3846","xpyriment","legacy","legacy","c","1","undefined","1","q","undefined","53","53","0","0","0","53","0","53","53","53","0","Mon Dec 15 20:21:06 2025","The main experiment item","False","stroop_task.osexp","C:\Users\jobay\Downloads","False","mono","False","25","80","40","no","white","no","yes","768","legacy","53","53","G:\class task\subject-4.csv","xpyriment","7","2","Neonatal Nightingale","4.1.6","0","q","NA","space","q","553.0","NA","1488","553","890103","space","2","legacy","1024","2","48000","-16","experiment","4","even","997961","997257","892902","NA","1080","997459","891414","997961","998514","997253","1085","STROOP_task","50","53181.0","54","1024"
"92","92","979","979","#3d3846","xpyriment","legacy","legacy","n","1","undefined","1","p","undefined","54","54","0","0","0","54","0","54","54","54","0","Mon Dec 15 20:21:06 2025","The main experiment item","False","stroop_task.osexp","C:\Users\jobay\Downloads","False","mono","False","25","60","60","no","white","no","yes","768","legacy","54","54","G:\class task\subject-4.csv","xpyriment","8","9","Neonatal Nightingale","4.1.6","0","p","NA","space","p","692.0","NA","1488","692","890103","space","2","legacy","1024","2","48000","-16","experiment","4","even","999469","998765","892902","NA","1080","998967","891414","999469","1000161","998761","1085","STROOP_task","51","53873.0","55","1024"
"92","92","974","974","#3d3846","xpyriment","legacy","legacy","n","1","undefined","1","p","undefined","55","55","0","0","0","55","0","55","55","55","0","Mon Dec 15 20:21:06 2025","The main experiment item","False","stroop_task.osexp","C:\Users\jobay\Downloads","False","mono","False","25","60","60","no","white","no","yes","768","legacy","55","55","G:\class task\subject-4.csv","xpyriment","6","7","Neonatal Nightingale","4.1.6","0","p","NA","space","p","701.0","NA","1488","701","890103","space","2","legacy","1024","2","48000","-16","experiment","4","even","1001103","1000398","892902","NA","1080","1000600","891414","1001103","1001805","1000394","1085","STROOP_task","52","54574.0","56","1024"
"92","92","965","965","#3d3846","xpyriment","legacy","legacy","n","1","undefined","1","p","undefined","56","56","0","0","0","56","0","56","56","56","0","Mon Dec 15 20:21:06 2025","The main experiment item","False","stroop_task.osexp","C:\Users\jobay\Downloads","False","mono","False","25","60","60","no","white","no","yes","768","legacy","56","56","G:\class task\subject-4.csv","xpyriment","3","8","Neonatal Nightingale","4.1.6","0","p","NA","space","p","477.0","NA","1488","477","890103","space","2","legacy","1024","2","48000","-16","experiment","4","even","1002750","1002046","892902","NA","1080","1002248","891414","1002750","1003228","1002042","1085","STROOP_task","53","55051.0","57","1024"
"93","93","961","961","#3d3846","xpyriment","legacy","legacy","i","1","undefined","1","p","undefined","57","57","0","0","0","57","0","57","57","57","0","Mon Dec 15 20:21:06 2025","The main experiment item","False","stroop_task.osexp","C:\Users\jobay\Downloads","False","mono","False","25","80","40","no","white","no","yes","768","legacy","57","57","G:\class task\subject-4.csv","xpyriment","2","7","Neonatal Nightingale","4.1.6","0","p","NA","space","p","691.0","NA","1488","691","890103","space","2","legacy","1024","2","48000","-16","experiment","4","even","1004186","1003482","892902","NA","1080","1003684","891414","1004186","1004877","1003478","1085","STROOP_task","54","55742.0","58","1024"
"93","93","955","955","#3d3846","xpyriment","legacy","legacy","c","1","undefined","1","q","undefined","58","58","0","0","0","58","0","58","58","58","0","Mon Dec 15 20:21:06 2025","The main experiment item","False","stroop_task.osexp","C:\Users\jobay\Downloads","False","mono","False","25","80","40","no","white","no","yes","768","legacy","58","58","G:\class task\subject-4.csv","xpyriment","6","1","Neonatal Nightingale","4.1.6","0","q","NA","space","q","629.0","NA","1488","629","890103","space","2","legacy","1024","2","48000","-16","experiment","4","even","1005831","1005126","892902","NA","1080","1005329","891414","1005831","1006460","1005121","1085","STROOP_task","55","56371.0","59","1024"
"93","93","950","950","#3d3846","xpyriment","legacy","legacy","n","1","undefined","1","p","undefined","59","59","0","0","0","59","0","59","59","59","0","Mon Dec 15 20:21:06 2025","The main experiment item","False","stroop_task.osexp","C:\Users\jobay\Downloads","False","mono","False","25","60","60","no","white","no","yes","768","legacy","59","59","G:\class task\subject-4.csv","xpyriment","8","9","Neonatal Nightingale","4.1.6","0","p","NA","space","p","653.0","NA","1488","653","890103","space","2","legacy","1024","2","48000","-16","experiment","4","even","1007411","1006705","892902","NA","1080","1006909","891414","1007411","1008065","1006700","1085","STROOP_task","56","57024.0","60","1024"
"93","93","942","942","#3d3846","xpyriment","legacy","legacy","c","1","undefined","1","q","undefined","60","60","0","0","0","60","0","60","60","60","0","Mon Dec 15 20:21:06 2025","The main experiment item","False","stroop_task.osexp","C:\Users\jobay\Downloads","False","mono","False","25","80","40","no","white","no","yes","768","legacy","60","60","G:\class task\subject-4.csv","xpyriment","7","6","Neonatal Nightingale","4.1.6","0","q","NA","space","q","485.0","NA","1488","485","890103","space","2","legacy","1024","2","48000","-16","experiment","4","even","1009020","1008316","892902","NA","1080","1008518","891414","1009020","1009506","1008312","1085","STROOP_task","57","57509.0","61","1024"
"93","93","935","935","#3d3846","xpyriment","legacy","legacy","i","1","undefined","1","p","undefined","61","61","0","0","0","61","0","61","61","61","0","Mon Dec 15 20:21:06 2025","The main experiment item","False","stroop_task.osexp","C:\Users\jobay\Downloads","False","mono","False","25","80","40","no","white","no","yes","768","legacy","61","61","G:\class task\subject-4.csv","xpyriment","1","6","Neonatal Nightingale","4.1.6","0","p","NA","space","p","470.0","NA","1488","470","890103","space","2","legacy","1024","2","48000","-16","experiment","4","even","1010461","1009757","892902","NA","1080","1009959","891414","1010461","1010931","1009752","1085","STROOP_task","58","57979.0","62","1024"
"93","93","938","938","#3d3846","xpyriment","legacy","legacy","c","1","undefined","1","q","undefined","62","62","0","0","0","62","0","62","62","62","0","Mon Dec 15 20:21:06 2025","The main experiment item","False","stroop_task.osexp","C:\Users\jobay\Downloads","False","mono","False","25","80","40","no","white","no","yes","768","legacy","62","62","G:\class task\subject-4.csv","xpyriment","6","1","Neonatal Nightingale","4.1.6","0","q","NA","space","q","1148.0","NA","1488","1148","890103","space","2","legacy","1024","2","48000","-16","experiment","4","even","1011878","1011174","892902","NA","1080","1011376","891414","1011878","1013027","1011170","1085","STROOP_task","59","59127.0","63","1024"
"93","93","937","937","#3d3846","xpyriment","legacy","legacy","i","1","undefined","1","p","undefined","63","63","0","0","0","63","0","63","63","63","0","Mon Dec 15 20:21:06 2025","The main experiment item","False","stroop_task.osexp","C:\Users\jobay\Downloads","False","mono","False","25","80","40","no","white","no","yes","768","legacy","63","63","G:\class task\subject-4.csv","xpyriment","1","2","Neonatal Nightingale","4.1.6","0","p","NA","space","p","859.0","NA","1488","859","890103","space","2","legacy","1024","2","48000","-16","experiment","4","even","1013984","1013280","892902","NA","1080","1013482","891414","1013984","1014843","1013276","1085","STROOP_task","60","59986.0","64","1024"
"93","93","931","931","#3d3846","xpyriment","legacy","legacy","c","1","undefined","1","p","undefined","64","64","0","0","0","64","0","64","64","64","0","Mon Dec 15 20:21:06 2025","The main experiment item","False","stroop_task.osexp","C:\Users\jobay\Downloads","False","mono","False","25","40","80","no","white","no","yes","768","legacy","64","64","G:\class task\subject-4.csv","xpyriment","2","7","Neonatal Nightingale","4.1.6","0","p","NA","space","p","547.0","NA","1488","547","890103","space","2","legacy","1024","2","48000","-16","experiment","4","even","1015804","1015100","892902","NA","1080","1015302","891414","1015804","1016352","1015096","1085","STROOP_task","61","60533.0","65","1024"
"93","93","927","927","#3d3846","xpyriment","legacy","legacy","i","1","undefined","1","p","undefined","65","65","0","0","0","65","0","65","65","65","0","Mon Dec 15 20:21:06 2025","The main experiment item","False","stroop_task.osexp","C:\Users\jobay\Downloads","False","mono","False","25","80","40","no","white","no","yes","768","legacy","65","65","G:\class task\subject-4.csv","xpyriment","8","9","Neonatal Nightingale","4.1.6","0","p","NA","space","p","653.0","NA","1488","653","890103","space","2","legacy","1024","2","48000","-16","experiment","4","even","1017335","1016631","892902","NA","1080","1016833","891414","1017335","1017989","1016627","1085","STROOP_task","62","61186.0","66","1024"
"94","94","922","922","#3d3846","xpyriment","legacy","legacy","i","1","undefined","1","q","undefined","66","66","0","0","0","66","0","66","66","66","0","Mon Dec 15 20:21:06 2025","The main experiment item","False","stroop_task.osexp","C:\Users\jobay\Downloads","False","mono","False","25","40","80","no","white","no","yes","768","legacy","66","66","G:\class task\subject-4.csv","xpyriment","6","1","Neonatal Nightingale","4.1.6","0","q","NA","space","q","636.0","NA","1488","636","890103","space","2","legacy","1024","2","48000","-16","experiment","4","even","1018960","1018256","892902","NA","1080","1018458","891414","1018960","1019597","1018252","1085","STROOP_task","63","61822.0","67","1024"
"94","94","918","918","#3d3846","xpyriment","legacy","legacy","n","1","undefined","1","p","undefined","67","67","0","0","0","67","0","67","67","67","0","Mon Dec 15 20:21:06 2025","The main experiment item","False","stroop_task.osexp","C:\Users\jobay\Downloads","False","mono","False","25","60","60","no","white","no","yes","768","legacy","67","67","G:\class task\subject-4.csv","xpyriment","4","9","Neonatal Nightingale","4.1.6","0","p","NA","space","p","607.0","NA","1488","607","890103","space","2","legacy","1024","2","48000","-16","experiment","4","even","1020571","1019867","892902","NA","1080","1020069","891414","1020571","1021178","1019862","1085","STROOP_task","64","62429.0","68","1024"
"94","94","913","913","#3d3846","xpyriment","legacy","legacy","i","1","undefined","1","p","undefined","68","68","0","0","0","68","0","68","68","68","0","Mon Dec 15 20:21:06 2025","The main experiment item","False","stroop_task.osexp","C:\Users\jobay\Downloads","False","mono","False","25","80","40","no","white","no","yes","768","legacy","68","68","G:\class task\subject-4.csv","xpyriment","1","2","Neonatal Nightingale","4.1.6","0","p","NA","space","p","585.0","NA","1488","585","890103","space","2","legacy","1024","2","48000","-16","experiment","4","even","1022147","1021443","892902","NA","1080","1021645","891414","1022147","1022733","1021438","1085","STROOP_task","65","63014.0","69","1024"
"94","94","906","906","#3d3846","xpyriment","legacy","legacy","n","1","undefined","1","p","undefined","69","69","0","0","0","69","0","69","69","69","0","Mon Dec 15 20:21:06 2025","The main experiment item","False","stroop_task.osexp","C:\Users\jobay\Downloads","False","mono","False","25","60","60","no","white","no","yes","768","legacy","69","69","G:\class task\subject-4.csv","xpyriment","1","6","Neonatal Nightingale","4.1.6","0","p","NA","space","p","433.0","NA","1488","433","890103","space","2","legacy","1024","2","48000","-16","experiment","4","even","1023697","1022993","892902","NA","1080","1023195","891414","1023697","1024131","1022989","1085","STROOP_task","66","63447.0","70","1024"
"94","94","902","902","#3d3846","xpyriment","legacy","legacy","n","1","undefined","1","q","undefined","70","70","0","0","0","70","0","70","70","70","0","Mon Dec 15 20:21:06 2025","The main experiment item","False","stroop_task.osexp","C:\Users\jobay\Downloads","False","mono","False","25","60","60","no","white","no","yes","768","legacy","70","70","G:\class task\subject-4.csv","xpyriment","6","1","Neonatal Nightingale","4.1.6","0","q","NA","space","q","662.0","NA","1488","662","890103","space","2","legacy","1024","2","48000","-16","experiment","4","even","1025088","1024384","892902","NA","1080","1024586","891414","1025088","1025751","1024379","1085","STROOP_task","67","64109.0","71","1024"
"94","94","896","896","#3d3846","xpyriment","legacy","legacy","n","1","undefined","1","p","undefined","71","71","0","0","0","71","0","71","71","71","0","Mon Dec 15 20:21:06 2025","The main experiment item","False","stroop_task.osexp","C:\Users\jobay\Downloads","False","mono","False","25","60","60","no","white","no","yes","768","legacy","71","71","G:\class task\subject-4.csv","xpyriment","4","9","Neonatal Nightingale","4.1.6","0","p","NA","space","p","418.0","NA","1488","418","890103","space","2","legacy","1024","2","48000","-16","experiment","4","even","1026706","1026002","892902","NA","1080","1026204","891414","1026706","1027125","1025997","1085","STROOP_task","68","64527.0","72","1024"
"94","94","890","890","#3d3846","xpyriment","legacy","legacy","c","1","undefined","1","p","undefined","72","72","0","0","0","72","0","72","72","72","0","Mon Dec 15 20:21:06 2025","The main experiment item","False","stroop_task.osexp","C:\Users\jobay\Downloads","False","mono","False","25","40","80","no","white","no","yes","768","legacy","72","72","G:\class task\subject-4.csv","xpyriment","2","7","Neonatal Nightingale","4.1.6","0","p","NA","space","p","478.0","NA","1488","478","890103","space","2","legacy","1024","2","48000","-16","experiment","4","even","1028085","1027381","892902","NA","1080","1027583","891414","1028085","1028564","1027375","1085","STROOP_task","69","65005.0","73","1024"
"94","94","887","887","#3d3846","xpyriment","legacy","legacy","n","1","undefined","1","q","undefined","73","73","0","0","0","73","0","73","73","73","0","Mon Dec 15 20:21:06 2025","The main experiment item","False","stroop_task.osexp","C:\Users\jobay\Downloads","False","mono","False","25","60","60","no","white","no","yes","768","legacy","73","73","G:\class task\subject-4.csv","xpyriment","9","4","Neonatal Nightingale","4.1.6","0","q","NA","space","q","680.0","NA","1488","680","890103","space","2","legacy","1024","2","48000","-16","experiment","4","even","1029513","1028809","892902","NA","1080","1029011","891414","1029513","1030194","1028804","1085","STROOP_task","70","65685.0","74","1024"
"94","94","883","883","#3d3846","xpyriment","legacy","legacy","i","1","undefined","1","p","undefined","74","74","0","0","0","74","0","74","74","74","0","Mon Dec 15 20:21:06 2025","The main experiment item","False","stroop_task.osexp","C:\Users\jobay\Downloads","False","mono","False","25","80","40","no","white","no","yes","768","legacy","74","74","G:\class task\subject-4.csv","xpyriment","2","7","Neonatal Nightingale","4.1.6","0","p","NA","space","p","584.0","NA","1488","584","890103","space","2","legacy","1024","2","48000","-16","experiment","4","even","1031140","1030436","892902","NA","1080","1030638","891414","1031140","1031725","1030432","1085","STROOP_task","71","66269.0","75","1024"
"94","94","877","877","#3d3846","xpyriment","legacy","legacy","n","1","undefined","1","q","undefined","75","75","0","0","0","75","0","75","75","75","0","Mon Dec 15 20:21:06 2025","The main experiment item","False","stroop_task.osexp","C:\Users\jobay\Downloads","False","mono","False","25","60","60","no","white","no","yes","768","legacy","75","75","G:\class task\subject-4.csv","xpyriment","6","1","Neonatal Nightingale","4.1.6","0","q","NA","space","q","420.0","NA","1488","420","890103","space","2","legacy","1024","2","48000","-16","experiment","4","even","1032671","1031967","892902","NA","1080","1032169","891414","1032671","1033092","1031962","1085","STROOP_task","72","66689.0","76","1024"
"94","94","872","872","#3d3846","xpyriment","legacy","legacy","i","1","undefined","1","q","undefined","76","76","0","0","0","76","0","76","76","76","0","Mon Dec 15 20:21:06 2025","The main experiment item","False","stroop_task.osexp","C:\Users\jobay\Downloads","False","mono","False","25","40","80","no","white","no","yes","768","legacy","76","76","G:\class task\subject-4.csv","xpyriment","7","6","Neonatal Nightingale","4.1.6","0","q","NA","space","q","512.0","NA","1488","512","890103","space","2","legacy","1024","2","48000","-16","experiment","4","even","1034051","1033347","892902","NA","1080","1033549","891414","1034051","1034564","1033341","1085","STROOP_task","73","67201.0","77","1024"
"94","94","869","869","#3d3846","xpyriment","legacy","legacy","c","1","undefined","1","p","undefined","77","77","0","0","0","77","0","77","77","77","0","Mon Dec 15 20:21:06 2025","The main experiment item","False","stroop_task.osexp","C:\Users\jobay\Downloads","False","mono","False","25","40","80","no","white","no","yes","768","legacy","77","77","G:\class task\subject-4.csv","xpyriment","1","2","Neonatal Nightingale","4.1.6","0","p","NA","space","p","600.0","NA","1488","600","890103","space","2","legacy","1024","2","48000","-16","experiment","4","even","1035521","1034817","892902","NA","1080","1035019","891414","1035521","1036122","1034812","1085","STROOP_task","74","67801.0","78","1024"
"94","94","862","862","#3d3846","xpyriment","legacy","legacy","c","1","undefined","1","q","undefined","78","78","0","0","0","78","0","78","78","78","0","Mon Dec 15 20:21:06 2025","The main experiment item","False","stroop_task.osexp","C:\Users\jobay\Downloads","False","mono","False","25","80","40","no","white","no","yes","768","legacy","78","78","G:\class task\subject-4.csv","xpyriment","7","6","Neonatal Nightingale","4.1.6","0","q","NA","space","q","375.0","NA","1488","375","890103","space","2","legacy","1024","2","48000","-16","experiment","4","even","1037076","1036372","892902","NA","1080","1036574","891414","1037076","1037451","1036367","1085","STROOP_task","75","68176.0","79","1024"
"95","95","857","857","#3d3846","xpyriment","legacy","legacy","c","1","undefined","1","p","undefined","79","79","0","0","0","79","0","79","79","79","0","Mon Dec 15 20:21:06 2025","The main experiment item","False","stroop_task.osexp","C:\Users\jobay\Downloads","False","mono","False","25","40","80","no","white","no","yes","768","legacy","79","79","G:\class task\subject-4.csv","xpyriment","1","6","Neonatal Nightingale","4.1.6","0","p","NA","space","p","415.0","NA","1488","415","890103","space","2","legacy","1024","2","48000","-16","experiment","4","even","1038398","1037694","892902","NA","1080","1037896","891414","1038398","1038814","1037689","1085","STROOP_task","76","68591.0","80","1024"
"95","95","855","855","#3d3846","xpyriment","legacy","legacy","i","1","undefined","1","q","undefined","80","80","0","0","0","80","0","80","80","80","0","Mon Dec 15 20:21:06 2025","The main experiment item","False","stroop_task.osexp","C:\Users\jobay\Downloads","False","mono","False","25","40","80","no","white","no","yes","768","legacy","80","80","G:\class task\subject-4.csv","xpyriment","9","8","Neonatal Nightingale","4.1.6","0","q","NA","space","q","696.0","NA","1488","696","890103","space","2","legacy","1024","2","48000","-16","experiment","4","even","1039767","1039063","892902","NA","1080","1039265","891414","1039767","1040464","1039058","1085","STROOP_task","77","69287.0","81","1024"
"95","95","849","849","#3d3846","xpyriment","legacy","legacy","c","1","undefined","1","q","undefined","81","81","0","0","0","81","0","81","81","81","0","Mon Dec 15 20:21:06 2025","The main experiment item","False","stroop_task.osexp","C:\Users\jobay\Downloads","False","mono","False","25","80","40","no","white","no","yes","768","legacy","81","81","G:\class task\subject-4.csv","xpyriment","8","3","Neonatal Nightingale","4.1.6","0","q","NA","space","q","377.0","NA","1488","377","890103","space","2","legacy","1024","2","48000","-16","experiment","4","even","1041378","1040674","892902","NA","1080","1040876","891414","1041378","1041756","1040669","1085","STROOP_task","78","69664.0","82","1024"
"93","93","845","845","#3d3846","xpyriment","legacy","legacy","n","0","undefined","0","q","undefined","82","82","0","0","0","82","0","82","82","82","0","Mon Dec 15 20:21:06 2025","The main experiment item","False","stroop_task.osexp","C:\Users\jobay\Downloads","False","mono","False","25","60","60","no","white","no","yes","768","legacy","82","82","G:\class task\subject-4.csv","xpyriment","7","6","Neonatal Nightingale","4.1.6","0","p","NA","space","p","509.0","NA","1488","509","890103","space","2","legacy","1024","2","48000","-16","experiment","4","even","1042724","1042020","892902","NA","1080","1042222","891414","1042724","1043234","1042014","1085","STROOP_task","78","70173.0","83","1024"
"94","94","839","839","#3d3846","xpyriment","legacy","legacy","c","1","undefined","1","q","undefined","83","83","0","0","0","83","0","83","83","83","0","Mon Dec 15 20:21:06 2025","The main experiment item","False","stroop_task.osexp","C:\Users\jobay\Downloads","False","mono","False","25","80","40","no","white","no","yes","768","legacy","83","83","G:\class task\subject-4.csv","xpyriment","7","6","Neonatal Nightingale","4.1.6","0","q","NA","space","q","363.0","NA","1488","363","890103","space","2","legacy","1024","2","48000","-16","experiment","4","even","1044200","1043496","892902","NA","1080","1043698","891414","1044200","1044564","1043492","1085","STROOP_task","79","70536.0","84","1024"
"94","94","835","835","#3d3846","xpyriment","legacy","legacy","c","1","undefined","1","p","undefined","84","84","0","0","0","84","0","84","84","84","0","Mon Dec 15 20:21:06 2025","The main experiment item","False","stroop_task.osexp","C:\Users\jobay\Downloads","False","mono","False","25","40","80","no","white","no","yes","768","legacy","84","84","G:\class task\subject-4.csv","xpyriment","3","4","Neonatal Nightingale","4.1.6","0","p","NA","space","p","522.0","NA","1488","522","890103","space","2","legacy","1024","2","48000","-16","experiment","4","even","1045535","1044831","892902","NA","1080","1045033","891414","1045535","1046058","1044826","1085","STROOP_task","80","71058.0","85","1024"
"93","93","834","834","#3d3846","xpyriment","legacy","legacy","i","0","undefined","0","p","undefined","85","85","0","0","0","85","0","85","85","85","0","Mon Dec 15 20:21:06 2025","The main experiment item","False","stroop_task.osexp","C:\Users\jobay\Downloads","False","mono","False","25","80","40","no","white","no","yes","768","legacy","85","85","G:\class task\subject-4.csv","xpyriment","6","7","Neonatal Nightingale","4.1.6","0","q","NA","space","q","744.0","NA","1488","744","890103","space","2","legacy","1024","2","48000","-16","experiment","4","even","1047032","1046328","892902","NA","1080","1046530","891414","1047032","1047776","1046323","1085","STROOP_task","80","71802.0","86","1024"
"93","93","831","831","#3d3846","xpyriment","legacy","legacy","c","1","undefined","1","q","undefined","86","86","0","0","0","86","0","86","86","86","0","Mon Dec 15 20:21:06 2025","The main experiment item","False","stroop_task.osexp","C:\Users\jobay\Downloads","False","mono","False","25","80","40","no","white","no","yes","768","legacy","86","86","G:\class task\subject-4.csv","xpyriment","7","2","Neonatal Nightingale","4.1.6","0","q","NA","space","q","515.0","NA","1488","515","890103","space","2","legacy","1024","2","48000","-16","experiment","4","even","1048751","1048047","892902","NA","1080","1048249","891414","1048751","1049266","1048043","1085","STROOP_task","81","72317.0","87","1024"
"93","93","829","829","#3d3846","xpyriment","legacy","legacy","c","1","undefined","1","p","undefined","87","87","0","0","0","87","0","87","87","87","0","Mon Dec 15 20:21:06 2025","The main experiment item","False","stroop_task.osexp","C:\Users\jobay\Downloads","False","mono","False","25","40","80","no","white","no","yes","768","legacy","87","87","G:\class task\subject-4.csv","xpyriment","1","2","Neonatal Nightingale","4.1.6","0","p","NA","space","p","687.0","NA","1488","687","890103","space","2","legacy","1024","2","48000","-16","experiment","4","even","1050280","1049576","892902","NA","1080","1049778","891414","1050280","1050968","1049572","1085","STROOP_task","82","73004.0","88","1024"
"93","93","827","827","#3d3846","xpyriment","legacy","legacy","n","1","undefined","1","p","undefined","88","88","0","0","0","88","0","88","88","88","0","Mon Dec 15 20:21:06 2025","The main experiment item","False","stroop_task.osexp","C:\Users\jobay\Downloads","False","mono","False","25","60","60","no","white","no","yes","768","legacy","88","88","G:\class task\subject-4.csv","xpyriment","3","4","Neonatal Nightingale","4.1.6","0","p","NA","space","p","608.0","NA","1488","608","890103","space","2","legacy","1024","2","48000","-16","experiment","4","even","1051907","1051203","892902","NA","1080","1051405","891414","1051907","1052516","1051199","1085","STROOP_task","83","73612.0","89","1024"
"93","93","822","822","#3d3846","xpyriment","legacy","legacy","c","1","undefined","1","q","undefined","89","89","0","0","0","89","0","89","89","89","0","Mon Dec 15 20:21:06 2025","The main experiment item","False","stroop_task.osexp","C:\Users\jobay\Downloads","False","mono","False","25","80","40","no","white","no","yes","768","legacy","89","89","G:\class task\subject-4.csv","xpyriment","6","1","Neonatal Nightingale","4.1.6","0","q","NA","space","q","420.0","NA","1488","420","890103","space","2","legacy","1024","2","48000","-16","experiment","4","even","1053463","1052759","892902","NA","1080","1052961","891414","1053463","1053884","1052755","1085","STROOP_task","84","74032.0","90","1024"
"93","93","818","818","#3d3846","xpyriment","legacy","legacy","c","1","undefined","1","q","undefined","90","90","0","0","0","90","0","90","90","90","0","Mon Dec 15 20:21:06 2025","The main experiment item","False","stroop_task.osexp","C:\Users\jobay\Downloads","False","mono","False","25","80","40","no","white","no","yes","768","legacy","90","90","G:\class task\subject-4.csv","xpyriment","9","4","Neonatal Nightingale","4.1.6","0","q","NA","space","q","457.0","NA","1488","457","890103","space","2","legacy","1024","2","48000","-16","experiment","4","even","1054848","1054144","892902","NA","1080","1054346","891414","1054848","1055305","1054139","1085","STROOP_task","85","74489.0","91","1024"
"93","93","818","818","#3d3846","xpyriment","legacy","legacy","i","1","undefined","1","q","undefined","91","91","0","0","0","91","0","91","91","91","0","Mon Dec 15 20:21:06 2025","The main experiment item","False","stroop_task.osexp","C:\Users\jobay\Downloads","False","mono","False","25","40","80","no","white","no","yes","768","legacy","91","91","G:\class task\subject-4.csv","xpyriment","7","6","Neonatal Nightingale","4.1.6","0","q","NA","space","q","776.0","NA","1488","776","890103","space","2","legacy","1024","2","48000","-16","experiment","4","even","1056258","1055554","892902","NA","1080","1055756","891414","1056258","1057035","1055550","1085","STROOP_task","86","75265.0","92","1024"
"93","93","813","813","#3d3846","xpyriment","legacy","legacy","n","1","undefined","1","q","undefined","92","92","0","0","0","92","0","92","92","92","0","Mon Dec 15 20:21:06 2025","The main experiment item","False","stroop_task.osexp","C:\Users\jobay\Downloads","False","mono","False","25","60","60","no","white","no","yes","768","legacy","92","92","G:\class task\subject-4.csv","xpyriment","7","2","Neonatal Nightingale","4.1.6","0","q","NA","space","q","403.0","NA","1488","403","890103","space","2","legacy","1024","2","48000","-16","experiment","4","even","1058081","1057377","892902","NA","1080","1057579","891414","1058081","1058485","1057372","1085","STROOP_task","87","75668.0","93","1024"
"93","93","812","812","#3d3846","xpyriment","legacy","legacy","n","1","undefined","1","q","undefined","93","93","0","0","0","93","0","93","93","93","0","Mon Dec 15 20:21:06 2025","The main experiment item","False","stroop_task.osexp","C:\Users\jobay\Downloads","False","mono","False","25","60","60","no","white","no","yes","768","legacy","93","93","G:\class task\subject-4.csv","xpyriment","9","4","Neonatal Nightingale","4.1.6","0","q","NA","space","q","665.0","NA","1488","665","890103","space","2","legacy","1024","2","48000","-16","experiment","4","even","1059445","1058741","892902","NA","1080","1058943","891414","1059445","1060111","1058734","1085","STROOP_task","88","76333.0","94","1024"
"93","93","808","808","#3d3846","xpyriment","legacy","legacy","c","1","undefined","1","q","undefined","94","94","0","0","0","94","0","94","94","94","0","Mon Dec 15 20:21:06 2025","The main experiment item","False","stroop_task.osexp","C:\Users\jobay\Downloads","False","mono","False","25","80","40","no","white","no","yes","768","legacy","94","94","G:\class task\subject-4.csv","xpyriment","7","2","Neonatal Nightingale","4.1.6","0","q","NA","space","q","493.0","NA","1488","493","890103","space","2","legacy","1024","2","48000","-16","experiment","4","even","1061050","1060346","892902","NA","1080","1060548","891414","1061050","1061544","1060341","1085","STROOP_task","89","76826.0","95","1024"
"93","93","804","804","#3d3846","xpyriment","legacy","legacy","c","1","undefined","1","q","undefined","95","95","0","0","0","95","0","95","95","95","0","Mon Dec 15 20:21:06 2025","The main experiment item","False","stroop_task.osexp","C:\Users\jobay\Downloads","False","mono","False","25","80","40","no","white","no","yes","768","legacy","95","95","G:\class task\subject-4.csv","xpyriment","9","8","Neonatal Nightingale","4.1.6","0","q","NA","space","q","448.0","NA","1488","448","890103","space","2","legacy","1024","2","48000","-16","experiment","4","even","1062507","1061803","892902","NA","1080","1062005","891414","1062507","1062955","1061799","1085","STROOP_task","90","77274.0","96","1024"
"93","93","801","801","#3d3846","xpyriment","legacy","legacy","n","1","undefined","1","p","undefined","96","96","0","0","0","96","0","96","96","96","0","Mon Dec 15 20:21:06 2025","The main experiment item","False","stroop_task.osexp","C:\Users\jobay\Downloads","False","mono","False","25","60","60","no","white","no","yes","768","legacy","96","96","G:\class task\subject-4.csv","xpyriment","2","7","Neonatal Nightingale","4.1.6","0","p","NA","space","p","504.0","NA","1488","504","890103","space","2","legacy","1024","2","48000","-16","experiment","4","even","1063915","1063211","892902","NA","1080","1063413","891414","1063915","1064420","1063206","1085","STROOP_task","91","77778.0","97","1024"
"93","93","797","797","#3d3846","xpyriment","legacy","legacy","c","1","undefined","1","p","undefined","97","97","0","0","0","97","0","97","97","97","0","Mon Dec 15 20:21:06 2025","The main experiment item","False","stroop_task.osexp","C:\Users\jobay\Downloads","False","mono","False","25","40","80","no","white","no","yes","768","legacy","97","97","G:\class task\subject-4.csv","xpyriment","1","6","Neonatal Nightingale","4.1.6","0","p","NA","space","p","424.0","NA","1488","424","890103","space","2","legacy","1024","2","48000","-16","experiment","4","even","1065382","1064678","892902","NA","1080","1064880","891414","1065382","1065807","1064674","1085","STROOP_task","92","78202.0","98","1024"
"93","93","795","795","#3d3846","xpyriment","legacy","legacy","i","1","undefined","1","q","undefined","98","98","0","0","0","98","0","98","98","98","0","Mon Dec 15 20:21:06 2025","The main experiment item","False","stroop_task.osexp","C:\Users\jobay\Downloads","False","mono","False","25","40","80","no","white","no","yes","768","legacy","98","98","G:\class task\subject-4.csv","xpyriment","7","2","Neonatal Nightingale","4.1.6","0","q","NA","space","q","545.0","NA","1488","545","890103","space","2","legacy","1024","2","48000","-16","experiment","4","even","1066773","1066069","892902","NA","1080","1066271","891414","1066773","1067318","1066064","1085","STROOP_task","93","78747.0","99","1024"
"94","94","793","793","#3d3846","xpyriment","legacy","legacy","c","1","undefined","1","p","undefined","99","99","0","0","0","99","0","99","99","99","0","Mon Dec 15 20:21:06 2025","The main experiment item","False","stroop_task.osexp","C:\Users\jobay\Downloads","False","mono","False","25","40","80","no","white","no","yes","768","legacy","99","99","G:\class task\subject-4.csv","xpyriment","8","9","Neonatal Nightingale","4.1.6","0","p","NA","space","p","645.0","NA","1488","645","890103","space","2","legacy","1024","2","48000","-16","experiment","4","even","1068285","1067581","892902","NA","1080","1067783","891414","1068285","1068930","1067577","1085","STROOP_task","94","79392.0","100","1024"
"94","94","791","791","#3d3846","xpyriment","legacy","legacy","n","1","undefined","1","q","undefined","100","100","0","0","0","100","0","100","100","100","0","Mon Dec 15 20:21:06 2025","The main experiment item","False","stroop_task.osexp","C:\Users\jobay\Downloads","False","mono","False","25","60","60","no","white","no","yes","768","legacy","100","100","G:\class task\subject-4.csv","xpyriment","9","8","Neonatal Nightingale","4.1.6","0","q","NA","space","q","590.0","NA","1488","590","890103","space","2","legacy","1024","2","48000","-16","experiment","4","even","1069916","1069212","892902","NA","1080","1069414","891414","1069916","1070507","1069207","1085","STROOP_task","95","79982.0","101","1024"
"94","94","788","788","#3d3846","xpyriment","legacy","legacy","c","1","undefined","1","p","undefined","101","101","0","0","0","101","0","101","101","101","0","Mon Dec 15 20:21:06 2025","The main experiment item","False","stroop_task.osexp","C:\Users\jobay\Downloads","False","mono","False","25","40","80","no","white","no","yes","768","legacy","101","101","G:\class task\subject-4.csv","xpyriment","3","4","Neonatal Nightingale","4.1.6","0","p","NA","space","p","474.0","NA","1488","474","890103","space","2","legacy","1024","2","48000","-16","experiment","4","even","1071449","1070745","892902","NA","1080","1070947","891414","1071449","1071924","1070740","1085","STROOP_task","96","80456.0","102","1024"
"94","94","787","787","#3d3846","xpyriment","legacy","legacy","i","1","undefined","1","p","undefined","102","102","0","0","0","102","0","102","102","102","0","Mon Dec 15 20:21:06 2025","The main experiment item","False","stroop_task.osexp","C:\Users\jobay\Downloads","False","mono","False","25","80","40","no","white","no","yes","768","legacy","102","102","G:\class task\subject-4.csv","xpyriment","3","8","Neonatal Nightingale","4.1.6","0","p","NA","space","p","656.0","NA","1488","656","890103","space","2","legacy","1024","2","48000","-16","experiment","4","even","1072905","1072201","892902","NA","1080","1072403","891414","1072905","1073563","1072197","1085","STROOP_task","97","81112.0","103","1024"
"94","94","785","785","#3d3846","xpyriment","legacy","legacy","c","1","undefined","1","q","undefined","103","103","0","0","0","103","0","103","103","103","0","Mon Dec 15 20:21:06 2025","The main experiment item","False","stroop_task.osexp","C:\Users\jobay\Downloads","False","mono","False","25","80","40","no","white","no","yes","768","legacy","103","103","G:\class task\subject-4.csv","xpyriment","4","3","Neonatal Nightingale","4.1.6","0","q","NA","space","q","607.0","NA","1488","607","890103","space","2","legacy","1024","2","48000","-16","experiment","4","even","1074542","1073838","892902","NA","1080","1074040","891414","1074542","1075150","1073834","1085","STROOP_task","98","81719.0","104","1024"
"94","94","785","785","#3d3846","xpyriment","legacy","legacy","n","1","undefined","1","q","undefined","104","104","0","0","0","104","0","104","104","104","0","Mon Dec 15 20:21:06 2025","The main experiment item","False","stroop_task.osexp","C:\Users\jobay\Downloads","False","mono","False","25","60","60","no","white","no","yes","768","legacy","104","104","G:\class task\subject-4.csv","xpyriment","2","1","Neonatal Nightingale","4.1.6","0","q","NA","space","q","709.0","NA","1488","709","890103","space","2","legacy","1024","2","48000","-16","experiment","4","even","1076167","1075462","892902","NA","1080","1075665","891414","1076167","1076877","1075458","1085","STROOP_task","99","82428.0","105","1024"
"94","94","781","781","#3d3846","xpyriment","legacy","legacy","n","1","undefined","1","q","undefined","105","105","0","0","0","105","0","105","105","105","0","Mon Dec 15 20:21:06 2025","The main experiment item","False","stroop_task.osexp","C:\Users\jobay\Downloads","False","mono","False","25","60","60","no","white","no","yes","768","legacy","105","105","G:\class task\subject-4.csv","xpyriment","4","3","Neonatal Nightingale","4.1.6","0","q","NA","space","q","401.0","NA","1488","401","890103","space","2","legacy","1024","2","48000","-16","experiment","4","even","1077815","1077111","892902","NA","1080","1077313","891414","1077815","1078217","1077106","1085","STROOP_task","100","82829.0","106","1024"
"94","94","778","778","#3d3846","xpyriment","legacy","legacy","c","1","undefined","1","p","undefined","106","106","0","0","0","106","0","106","106","106","0","Mon Dec 15 20:21:06 2025","The main experiment item","False","stroop_task.osexp","C:\Users\jobay\Downloads","False","mono","False","25","40","80","no","white","no","yes","768","legacy","106","106","G:\class task\subject-4.csv","xpyriment","4","9","Neonatal Nightingale","4.1.6","0","p","NA","space","p","474.0","NA","1488","474","890103","space","2","legacy","1024","2","48000","-16","experiment","4","even","1079164","1078460","892902","NA","1080","1078662","891414","1079164","1079640","1078455","1085","STROOP_task","101","83303.0","107","1024"
"94","94","776","776","#3d3846","xpyriment","legacy","legacy","n","1","undefined","1","q","undefined","107","107","0","0","0","107","0","107","107","107","0","Mon Dec 15 20:21:06 2025","The main experiment item","False","stroop_task.osexp","C:\Users\jobay\Downloads","False","mono","False","25","60","60","no","white","no","yes","768","legacy","107","107","G:\class task\subject-4.csv","xpyriment","7","6","Neonatal Nightingale","4.1.6","0","q","NA","space","q","561.0","NA","1488","561","890103","space","2","legacy","1024","2","48000","-16","experiment","4","even","1080586","1079882","892902","NA","1080","1080084","891414","1080586","1081148","1079877","1085","STROOP_task","102","83864.0","108","1024"
"94","94","774","774","#3d3846","xpyriment","legacy","legacy","i","1","undefined","1","q","undefined","108","108","0","0","0","108","0","108","108","108","0","Mon Dec 15 20:21:06 2025","The main experiment item","False","stroop_task.osexp","C:\Users\jobay\Downloads","False","mono","False","25","40","80","no","white","no","yes","768","legacy","108","108","G:\class task\subject-4.csv","xpyriment","4","3","Neonatal Nightingale","4.1.6","0","q","NA","space","q","518.0","NA","1488","518","890103","space","2","legacy","1024","2","48000","-16","experiment","4","even","1082093","1081389","892902","NA","1080","1081591","891414","1082093","1082612","1081384","1085","STROOP_task","103","84382.0","109","1024"
"94","94","772","772","#3d3846","xpyriment","legacy","legacy","c","1","undefined","1","p","undefined","109","109","0","0","0","109","0","109","109","109","0","Mon Dec 15 20:21:06 2025","The main experiment item","False","stroop_task.osexp","C:\Users\jobay\Downloads","False","mono","False","25","40","80","no","white","no","yes","768","legacy","109","109","G:\class task\subject-4.csv","xpyriment","4","9","Neonatal Nightingale","4.1.6","0","p","NA","space","p","641.0","NA","1488","641","890103","space","2","legacy","1024","2","48000","-16","experiment","4","even","1083567","1082863","892902","NA","1080","1083065","891414","1083567","1084209","1082858","1085","STROOP_task","104","85023.0","110","1024"
"94","94","773","773","#3d3846","xpyriment","legacy","legacy","n","1","undefined","1","p","undefined","110","110","0","0","0","110","0","110","110","110","0","Mon Dec 15 20:21:06 2025","The main experiment item","False","stroop_task.osexp","C:\Users\jobay\Downloads","False","mono","False","25","60","60","no","white","no","yes","768","legacy","110","110","G:\class task\subject-4.csv","xpyriment","8","9","Neonatal Nightingale","4.1.6","0","p","NA","space","p","809.0","NA","1488","809","890103","space","2","legacy","1024","2","48000","-16","experiment","4","even","1085156","1084450","892902","NA","1080","1084652","891414","1085156","1085966","1084446","1085","STROOP_task","105","85832.0","111","1024"
"94","94","772","772","#3d3846","xpyriment","legacy","legacy","i","1","undefined","1","p","undefined","111","111","0","0","0","111","0","111","111","111","0","Mon Dec 15 20:21:06 2025","The main experiment item","False","stroop_task.osexp","C:\Users\jobay\Downloads","False","mono","False","25","80","40","no","white","no","yes","768","legacy","111","111","G:\class task\subject-4.csv","xpyriment","4","9","Neonatal Nightingale","4.1.6","0","p","NA","space","p","666.0","NA","1488","666","890103","space","2","legacy","1024","2","48000","-16","experiment","4","even","1086919","1086215","892902","NA","1080","1086417","891414","1086919","1087586","1086210","1085","STROOP_task","106","86498.0","112","1024"
"94","94","770","770","#3d3846","xpyriment","legacy","legacy","c","1","undefined","1","p","undefined","112","112","0","0","0","112","0","112","112","112","0","Mon Dec 15 20:21:06 2025","The main experiment item","False","stroop_task.osexp","C:\Users\jobay\Downloads","False","mono","False","25","40","80","no","white","no","yes","768","legacy","112","112","G:\class task\subject-4.csv","xpyriment","2","7","Neonatal Nightingale","4.1.6","0","p","NA","space","p","580.0","NA","1488","580","890103","space","2","legacy","1024","2","48000","-16","experiment","4","even","1088543","1087839","892902","NA","1080","1088041","891414","1088543","1089124","1087834","1085","STROOP_task","107","87078.0","113","1024"
"94","94","768","768","#3d3846","xpyriment","legacy","legacy","c","1","undefined","1","q","undefined","113","113","0","0","0","113","0","113","113","113","0","Mon Dec 15 20:21:06 2025","The main experiment item","False","stroop_task.osexp","C:\Users\jobay\Downloads","False","mono","False","25","80","40","no","white","no","yes","768","legacy","113","113","G:\class task\subject-4.csv","xpyriment","7","2","Neonatal Nightingale","4.1.6","0","q","NA","space","q","521.0","NA","1488","521","890103","space","2","legacy","1024","2","48000","-16","experiment","4","even","1090072","1089368","892902","NA","1080","1089570","891414","1090072","1090594","1089363","1085","STROOP_task","108","87599.0","114","1024"
"94","94","765","765","#3d3846","xpyriment","legacy","legacy","c","1","undefined","1","p","undefined","114","114","0","0","0","114","0","114","114","114","0","Mon Dec 15 20:21:06 2025","The main experiment item","False","stroop_task.osexp","C:\Users\jobay\Downloads","False","mono","False","25","40","80","no","white","no","yes","768","legacy","114","114","G:\class task\subject-4.csv","xpyriment","6","7","Neonatal Nightingale","4.1.6","0","p","NA","space","p","402.0","NA","1488","402","890103","space","2","legacy","1024","2","48000","-16","experiment","4","even","1091555","1090851","892902","NA","1080","1091053","891414","1091555","1091958","1090846","1085","STROOP_task","109","88001.0","115","1024"
"94","94","762","762","#3d3846","xpyriment","legacy","legacy","c","1","undefined","1","q","undefined","115","115","0","0","0","115","0","115","115","115","0","Mon Dec 15 20:21:06 2025","The main experiment item","False","stroop_task.osexp","C:\Users\jobay\Downloads","False","mono","False","25","80","40","no","white","no","yes","768","legacy","115","115","G:\class task\subject-4.csv","xpyriment","9","8","Neonatal Nightingale","4.1.6","0","q","NA","space","q","406.0","NA","1488","406","890103","space","2","legacy","1024","2","48000","-16","experiment","4","even","1092911","1092207","892902","NA","1080","1092409","891414","1092911","1093317","1092202","1085","STROOP_task","110","88407.0","116","1024"
"94","94","759","759","#3d3846","xpyriment","legacy","legacy","n","1","undefined","1","q","undefined","116","116","0","0","0","116","0","116","116","116","0","Mon Dec 15 20:21:06 2025","The main experiment item","False","stroop_task.osexp","C:\Users\jobay\Downloads","False","mono","False","25","60","60","no","white","no","yes","768","legacy","116","116","G:\class task\subject-4.csv","xpyriment","7","2","Neonatal Nightingale","4.1.6","0","q","NA","space","q","491.0","NA","1488","491","890103","space","2","legacy","1024","2","48000","-16","experiment","4","even","1094294","1093590","892902","NA","1080","1093792","891414","1094294","1094787","1093586","1085","STROOP_task","111","88898.0","117","1024"
"94","94","757","757","#3d3846","xpyriment","legacy","legacy","c","1","undefined","1","q","undefined","117","117","0","0","0","117","0","117","117","117","0","Mon Dec 15 20:21:06 2025","The main experiment item","False","stroop_task.osexp","C:\Users\jobay\Downloads","False","mono","False","25","80","40","no","white","no","yes","768","legacy","117","117","G:\class task\subject-4.csv","xpyriment","9","4","Neonatal Nightingale","4.1.6","0","q","NA","space","q","434.0","NA","1488","434","890103","space","2","legacy","1024","2","48000","-16","experiment","4","even","1095768","1095064","892902","NA","1080","1095266","891414","1095768","1096204","1095059","1085","STROOP_task","112","89332.0","118","1024"
"94","94","756","756","#3d3846","xpyriment","legacy","legacy","i","1","undefined","1","p","undefined","118","118","0","0","0","118","0","118","118","118","0","Mon Dec 15 20:21:06 2025","The main experiment item","False","stroop_task.osexp","C:\Users\jobay\Downloads","False","mono","False","25","80","40","no","white","no","yes","768","legacy","118","118","G:\class task\subject-4.csv","xpyriment","6","7","Neonatal Nightingale","4.1.6","0","p","NA","space","p","683.0","NA","1488","683","890103","space","2","legacy","1024","2","48000","-16","experiment","4","even","1097191","1096487","892902","NA","1080","1096689","891414","1097191","1097875","1096482","1085","STROOP_task","113","90015.0","119","1024"
"95","95","755","755","#3d3846","xpyriment","legacy","legacy","i","1","undefined","1","p","undefined","119","119","0","0","0","119","0","119","119","119","0","Mon Dec 15 20:21:06 2025","The main experiment item","False","stroop_task.osexp","C:\Users\jobay\Downloads","False","mono","False","25","80","40","no","white","no","yes","768","legacy","119","119","G:\class task\subject-4.csv","xpyriment","4","9","Neonatal Nightingale","4.1.6","0","p","NA","space","p","607.0","NA","1488","607","890103","space","2","legacy","1024","2","48000","-16","experiment","4","even","1098878","1098174","892902","NA","1080","1098376","891414","1098878","1099486","1098169","1085","STROOP_task","114","90622.0","120","1024"
"95","95","752","752","#3d3846","xpyriment","legacy","legacy","i","1","undefined","1","q","undefined","120","120","0","0","0","120","0","120","120","120","0","Mon Dec 15 20:21:06 2025","The main experiment item","False","stroop_task.osexp","C:\Users\jobay\Downloads","False","mono","False","25","40","80","no","white","no","yes","768","legacy","120","120","G:\class task\subject-4.csv","xpyriment","6","1","Neonatal Nightingale","4.1.6","0","q","NA","space","q","460.0","NA","1488","460","890103","space","2","legacy","1024","2","48000","-16","experiment","4","even","1100463","1099759","892902","NA","1080","1099961","891414","1100463","1100924","1099755","1085","STROOP_task","115","91082.0","121","1024"
"95","95","750","750","#3d3846","xpyriment","legacy","legacy","i","1","undefined","1","p","undefined","121","121","0","0","0","121","0","121","121","121","0","Mon Dec 15 20:21:06 2025","The main experiment item","False","stroop_task.osexp","C:\Users\jobay\Downloads","False","mono","False","25","80","40","no","white","no","yes","768","legacy","121","121","G:\class task\subject-4.csv","xpyriment","1","6","Neonatal Nightingale","4.1.6","0","p","NA","space","p","470.0","NA","1488","470","890103","space","2","legacy","1024","2","48000","-16","experiment","4","even","1101956","1101252","892902","NA","1080","1101454","891414","1101956","1102427","1101247","1085","STROOP_task","116","91552.0","122","1024"
"95","95","748","748","#3d3846","xpyriment","legacy","legacy","n","1","undefined","1","q","undefined","122","122","0","0","0","122","0","122","122","122","0","Mon Dec 15 20:21:06 2025","The main experiment item","False","stroop_task.osexp","C:\Users\jobay\Downloads","False","mono","False","25","60","60","no","white","no","yes","768","legacy","122","122","G:\class task\subject-4.csv","xpyriment","9","8","Neonatal Nightingale","4.1.6","0","q","NA","space","q","484.0","NA","1488","484","890103","space","2","legacy","1024","2","48000","-16","experiment","4","even","1103388","1102684","892902","NA","1080","1102886","891414","1103388","1103873","1102680","1085","STROOP_task","117","92036.0","123","1024"
"95","95","745","745","#3d3846","xpyriment","legacy","legacy","c","1","undefined","1","p","undefined","123","123","0","0","0","123","0","123","123","123","0","Mon Dec 15 20:21:06 2025","The main experiment item","False","stroop_task.osexp","C:\Users\jobay\Downloads","False","mono","False","25","40","80","no","white","no","yes","768","legacy","123","123","G:\class task\subject-4.csv","xpyriment","4","9","Neonatal Nightingale","4.1.6","0","p","NA","space","p","416.0","NA","1488","416","890103","space","2","legacy","1024","2","48000","-16","experiment","4","even","1104832","1104128","892902","NA","1080","1104330","891414","1104832","1105249","1104124","1085","STROOP_task","118","92452.0","124","1024"
"95","95","743","743","#3d3846","xpyriment","legacy","legacy","i","1","undefined","1","p","undefined","124","124","0","0","0","124","0","124","124","124","0","Mon Dec 15 20:21:06 2025","The main experiment item","False","stroop_task.osexp","C:\Users\jobay\Downloads","False","mono","False","25","80","40","no","white","no","yes","768","legacy","124","124","G:\class task\subject-4.csv","xpyriment","1","6","Neonatal Nightingale","4.1.6","0","p","NA","space","p","488.0","NA","1488","488","890103","space","2","legacy","1024","2","48000","-16","experiment","4","even","1106210","1105506","892902","NA","1080","1105708","891414","1106210","1106699","1105502","1085","STROOP_task","119","92940.0","125","1024"
"95","95","740","740","#3d3846","xpyriment","legacy","legacy","n","1","undefined","1","p","undefined","125","125","0","0","0","125","0","125","125","125","0","Mon Dec 15 20:21:06 2025","The main experiment item","False","stroop_task.osexp","C:\Users\jobay\Downloads","False","mono","False","25","60","60","no","white","no","yes","768","legacy","125","125","G:\class task\subject-4.csv","xpyriment","3","4","Neonatal Nightingale","4.1.6","0","p","NA","space","p","423.0","NA","1488","423","890103","space","2","legacy","1024","2","48000","-16","experiment","4","even","1107648","1106944","892902","NA","1080","1107146","891414","1107648","1108072","1106939","1085","STROOP_task","120","93363.0","126","1024"
"95","95","737","737","#3d3846","xpyriment","legacy","legacy","n","1","undefined","1","p","undefined","126","126","0","0","0","126","0","126","126","126","0","Mon Dec 15 20:21:06 2025","The main experiment item","False","stroop_task.osexp","C:\Users\jobay\Downloads","False","mono","False","25","60","60","no","white","no","yes","768","legacy","126","126","G:\class task\subject-4.csv","xpyriment","1","6","Neonatal Nightingale","4.1.6","0","p","NA","space","p","356.0","NA","1488","356","890103","space","2","legacy","1024","2","48000","-16","experiment","4","even","1109033","1108329","892902","NA","1080","1108531","891414","1109033","1109390","1108325","1085","STROOP_task","121","93719.0","127","1024"
"95","95","735","735","#3d3846","xpyriment","legacy","legacy","c","1","undefined","1","q","undefined","127","127","0","0","0","127","0","127","127","127","0","Mon Dec 15 20:21:06 2025","The main experiment item","False","stroop_task.osexp","C:\Users\jobay\Downloads","False","mono","False","25","80","40","no","white","no","yes","768","legacy","127","127","G:\class task\subject-4.csv","xpyriment","8","3","Neonatal Nightingale","4.1.6","0","q","NA","space","q","402.0","NA","1488","402","890103","space","2","legacy","1024","2","48000","-16","experiment","4","even","1110354","1109650","892902","NA","1080","1109852","891414","1110354","1110757","1109645","1085","STROOP_task","122","94121.0","128","1024"
"95","95","732","732","#3d3846","xpyriment","legacy","legacy","n","1","undefined","1","p","undefined","128","128","0","0","0","128","0","128","128","128","0","Mon Dec 15 20:21:06 2025","The main experiment item","False","stroop_task.osexp","C:\Users\jobay\Downloads","False","mono","False","25","60","60","no","white","no","yes","768","legacy","128","128","G:\class task\subject-4.csv","xpyriment","3","8","Neonatal Nightingale","4.1.6","0","p","NA","space","p","383.0","NA","1488","383","890103","space","2","legacy","1024","2","48000","-16","experiment","4","even","1111704","1111000","892902","NA","1080","1111202","891414","1111704","1112088","1110996","1085","STROOP_task","123","94504.0","129","1024"
"95","95","730","730","#3d3846","xpyriment","legacy","legacy","i","1","undefined","1","q","undefined","129","129","0","0","0","129","0","129","129","129","0","Mon Dec 15 20:21:06 2025","The main experiment item","False","stroop_task.osexp","C:\Users\jobay\Downloads","False","mono","False","25","40","80","no","white","no","yes","768","legacy","129","129","G:\class task\subject-4.csv","xpyriment","6","1","Neonatal Nightingale","4.1.6","0","q","NA","space","q","480.0","NA","1488","480","890103","space","2","legacy","1024","2","48000","-16","experiment","4","even","1113055","1112351","892902","NA","1080","1112553","891414","1113055","1113536","1112346","1085","STROOP_task","124","94984.0","130","1024"
"95","95","728","728","#3d3846","xpyriment","legacy","legacy","i","1","undefined","1","q","undefined","130","130","0","0","0","130","0","130","130","130","0","Mon Dec 15 20:21:06 2025","The main experiment item","False","stroop_task.osexp","C:\Users\jobay\Downloads","False","mono","False","25","40","80","no","white","no","yes","768","legacy","130","130","G:\class task\subject-4.csv","xpyriment","8","3","Neonatal Nightingale","4.1.6","0","q","NA","space","q","419.0","NA","1488","419","890103","space","2","legacy","1024","2","48000","-16","experiment","4","even","1114491","1113787","892902","NA","1080","1113989","891414","1114491","1114911","1113783","1085","STROOP_task","125","95403.0","131","1024"
"95","95","725","725","#3d3846","xpyriment","legacy","legacy","c","1","undefined","1","q","undefined","131","131","0","0","0","131","0","131","131","131","0","Mon Dec 15 20:21:06 2025","The main experiment item","False","stroop_task.osexp","C:\Users\jobay\Downloads","False","mono","False","25","80","40","no","white","no","yes","768","legacy","131","131","G:\class task\subject-4.csv","xpyriment","7","6","Neonatal Nightingale","4.1.6","0","q","NA","space","q","371.0","NA","1488","371","890103","space","2","legacy","1024","2","48000","-16","experiment","4","even","1115876","1115172","892902","NA","1080","1115374","891414","1115876","1116247","1115168","1085","STROOP_task","126","95774.0","132","1024"
"95","95","723","723","#3d3846","xpyriment","legacy","legacy","n","1","undefined","1","p","undefined","132","132","0","0","0","132","0","132","132","132","0","Mon Dec 15 20:21:06 2025","The main experiment item","False","stroop_task.osexp","C:\Users\jobay\Downloads","False","mono","False","25","60","60","no","white","no","yes","768","legacy","132","132","G:\class task\subject-4.csv","xpyriment","2","7","Neonatal Nightingale","4.1.6","0","p","NA","space","p","411.0","NA","1488","411","890103","space","2","legacy","1024","2","48000","-16","experiment","4","even","1117199","1116495","892902","NA","1080","1116697","891414","1117199","1117611","1116491","1085","STROOP_task","127","96185.0","133","1024"
"94","94","721","721","#3d3846","xpyriment","legacy","legacy","n","0","undefined","0","p","undefined","133","133","0","0","0","133","0","133","133","133","0","Mon Dec 15 20:21:06 2025","The main experiment item","False","stroop_task.osexp","C:\Users\jobay\Downloads","False","mono","False","25","60","60","no","white","no","yes","768","legacy","133","133","G:\class task\subject-4.csv","xpyriment","1","2","Neonatal Nightingale","4.1.6","0","q","NA","space","q","513.0","NA","1488","513","890103","space","2","legacy","1024","2","48000","-16","experiment","4","even","1118567","1117863","892902","NA","1080","1118065","891414","1118567","1119081","1117859","1085","STROOP_task","127","96698.0","134","1024"
"94","94","720","720","#3d3846","xpyriment","legacy","legacy","i","1","undefined","1","q","undefined","134","134","0","0","0","134","0","134","134","134","0","Mon Dec 15 20:21:06 2025","The main experiment item","False","stroop_task.osexp","C:\Users\jobay\Downloads","False","mono","False","25","40","80","no","white","no","yes","768","legacy","134","134","G:\class task\subject-4.csv","xpyriment","7","2","Neonatal Nightingale","4.1.6","0","q","NA","space","q","562.0","NA","1488","562","890103","space","2","legacy","1024","2","48000","-16","experiment","4","even","1120013","1119309","892902","NA","1080","1119511","891414","1120013","1120576","1119305","1085","STROOP_task","128","97260.0","135","1024"
"94","94","719","719","#3d3846","xpyriment","legacy","legacy","c","1","undefined","1","p","undefined","135","135","0","0","0","135","0","135","135","135","0","Mon Dec 15 20:21:06 2025","The main experiment item","False","stroop_task.osexp","C:\Users\jobay\Downloads","False","mono","False","25","40","80","no","white","no","yes","768","legacy","135","135","G:\class task\subject-4.csv","xpyriment","6","7","Neonatal Nightingale","4.1.6","0","p","NA","space","p","648.0","NA","1488","648","890103","space","2","legacy","1024","2","48000","-16","experiment","4","even","1121555","1120850","892902","NA","1080","1121053","891414","1121555","1122204","1120846","1085","STROOP_task","129","97908.0","136","1024"
"94","94","718","718","#3d3846","xpyriment","legacy","legacy","i","1","undefined","1","q","undefined","136","136","0","0","0","136","0","136","136","136","0","Mon Dec 15 20:21:06 2025","The main experiment item","False","stroop_task.osexp","C:\Users\jobay\Downloads","False","mono","False","25","40","80","no","white","no","yes","768","legacy","136","136","G:\class task\subject-4.csv","xpyriment","2","1","Neonatal Nightingale","4.1.6","0","q","NA","space","q","520.0","NA","1488","520","890103","space","2","legacy","1024","2","48000","-16","experiment","4","even","1123182","1122478","892902","NA","1080","1122680","891414","1123182","1123703","1122474","1085","STROOP_task","130","98428.0","137","1024"
"94","94","717","717","#3d3846","xpyriment","legacy","legacy","n","1","undefined","1","p","undefined","137","137","0","0","0","137","0","137","137","137","0","Mon Dec 15 20:21:06 2025","The main experiment item","False","stroop_task.osexp","C:\Users\jobay\Downloads","False","mono","False","25","60","60","no","white","no","yes","768","legacy","137","137","G:\class task\subject-4.csv","xpyriment","4","9","Neonatal Nightingale","4.1.6","0","p","NA","space","p","576.0","NA","1488","576","890103","space","2","legacy","1024","2","48000","-16","experiment","4","even","1124700","1123996","892902","NA","1080","1124198","891414","1124700","1125276","1123992","1085","STROOP_task","131","99004.0","138","1024"
"94","94","715","715","#3d3846","xpyriment","legacy","legacy","n","1","undefined","1","p","undefined","138","138","0","0","0","138","0","138","138","138","0","Mon Dec 15 20:21:06 2025","The main experiment item","False","stroop_task.osexp","C:\Users\jobay\Downloads","False","mono","False","25","60","60","no","white","no","yes","768","legacy","138","138","G:\class task\subject-4.csv","xpyriment","2","7","Neonatal Nightingale","4.1.6","0","p","NA","space","p","461.0","NA","1488","461","890103","space","2","legacy","1024","2","48000","-16","experiment","4","even","1126296","1125592","892902","NA","1080","1125794","891414","1126296","1126758","1125587","1085","STROOP_task","132","99465.0","139","1024"
"95","95","714","714","#3d3846","xpyriment","legacy","legacy","n","1","undefined","1","q","undefined","139","139","0","0","0","139","0","139","139","139","0","Mon Dec 15 20:21:06 2025","The main experiment item","False","stroop_task.osexp","C:\Users\jobay\Downloads","False","mono","False","25","60","60","no","white","no","yes","768","legacy","139","139","G:\class task\subject-4.csv","xpyriment","2","1","Neonatal Nightingale","4.1.6","0","q","NA","space","q","577.0","NA","1488","577","890103","space","2","legacy","1024","2","48000","-16","experiment","4","even","1127728","1127024","892902","NA","1080","1127226","891414","1127728","1128308","1127020","1085","STROOP_task","133","100042.0","140","1024"
"95","95","714","714","#3d3846","xpyriment","legacy","legacy","i","1","undefined","1","p","undefined","140","140","0","0","0","140","0","140","140","140","0","Mon Dec 15 20:21:06 2025","The main experiment item","False","stroop_task.osexp","C:\Users\jobay\Downloads","False","mono","False","25","80","40","no","white","no","yes","768","legacy","140","140","G:\class task\subject-4.csv","xpyriment","3","8","Neonatal Nightingale","4.1.6","0","p","NA","space","p","672.0","NA","1488","672","890103","space","2","legacy","1024","2","48000","-16","experiment","4","even","1129272","1128568","892902","NA","1080","1128770","891414","1129272","1129945","1128563","1085","STROOP_task","134","100714.0","141","1024"
