"acc","accuracy","average_response_time","avg_rt","background","canvas_backend","clock_backend","color_backend","condition","correct","correct_intructions","correct_key_response","correct_resp","correct_welcome_message","count_Number","count_blank","count_block_loop","count_end_message","count_experiment","count_fixation","count_intructions","count_key_response","count_logger","count_trial_sequence","count_welcome_message","datetime","description","disable_garbage_collection","experiment_file","experiment_path","font_bold","font_family","font_italic","font_size","font_size_left","font_size_right","font_underline","foreground","form_clicks","fullscreen","height","keyboard_backend","live_row","live_row_block_loop","logfile","mouse_backend","number_left","number_right","opensesame_codename","opensesame_version","repeat_cycle","response","response_end_message","response_intructions","response_key_response","response_time","response_time_end_message","response_time_intructions","response_time_key_response","response_time_welcome_message","response_welcome_message","round_decimals","sampler_backend","sound_buf_size","sound_channels","sound_freq","sound_sample_size","start","subject_nr","subject_parity","time_Number","time_blank","time_block_loop","time_end_message","time_experiment","time_fixation","time_intructions","time_key_response","time_logger","time_trial_sequence","time_welcome_message","title","total_correct","total_response_time","total_responses","width"
"100","100","1348","1348","#3d3846","xpyriment","legacy","legacy","n","1","undefined","1","p","undefined","0","0","0","0","0","0","0","0","0","0","0","Mon Dec 15 23:15:49 2025","The main experiment item","False","stroop_task.osexp","C:\Users\jobay\Downloads","False","mono","False","25","60","60","no","white","no","yes","768","legacy","0","0","G:\class task\subject-6.csv","xpyriment","8","9","Neonatal Nightingale","4.1.6","0","p","NA","space","p","1348.0","NA","1098","1348","5268","space","2","legacy","1024","2","48000","-16","experiment","6","even","8657","7954","7681","NA","1307","8156","6583","8658","10006","7950","1312","STROOP_task","1","1348.0","1","1024"
"100","100","950","950","#3d3846","xpyriment","legacy","legacy","c","1","undefined","1","p","undefined","1","1","0","0","0","1","0","1","1","1","0","Mon Dec 15 23:15:49 2025","The main experiment item","False","stroop_task.osexp","C:\Users\jobay\Downloads","False","mono","False","25","40","80","no","white","no","yes","768","legacy","1","1","G:\class task\subject-6.csv","xpyriment","1","2","Neonatal Nightingale","4.1.6","0","p","NA","space","p","553.0","NA","1098","553","5268","space","2","legacy","1024","2","48000","-16","experiment","6","even","11072","10369","7681","NA","1307","10570","6583","11072","11625","10365","1312","STROOP_task","2","1901.0","2","1024"
"100","100","951","951","#3d3846","xpyriment","legacy","legacy","c","1","undefined","1","q","undefined","2","2","0","0","0","2","0","2","2","2","0","Mon Dec 15 23:15:49 2025","The main experiment item","False","stroop_task.osexp","C:\Users\jobay\Downloads","False","mono","False","25","80","40","no","white","no","yes","768","legacy","2","2","G:\class task\subject-6.csv","xpyriment","2","1","Neonatal Nightingale","4.1.6","0","q","NA","space","q","954.0","NA","1098","954","5268","space","2","legacy","1024","2","48000","-16","experiment","6","even","12650","11948","7681","NA","1307","12149","6583","12650","13604","11944","1312","STROOP_task","3","2855.0","3","1024"
"100","100","824","824","#3d3846","xpyriment","legacy","legacy","c","1","undefined","1","p","undefined","3","3","0","0","0","3","0","3","3","3","0","Mon Dec 15 23:15:49 2025","The main experiment item","False","stroop_task.osexp","C:\Users\jobay\Downloads","False","mono","False","25","40","80","no","white","no","yes","768","legacy","3","3","G:\class task\subject-6.csv","xpyriment","8","9","Neonatal Nightingale","4.1.6","0","p","NA","space","p","442.0","NA","1098","442","5268","space","2","legacy","1024","2","48000","-16","experiment","6","even","14667","13963","7681","NA","1307","14165","6583","14667","15110","13958","1312","STROOP_task","4","3297.0","4","1024"
"100","100","786","786","#3d3846","xpyriment","legacy","legacy","i","1","undefined","1","q","undefined","4","4","0","0","0","4","0","4","4","4","0","Mon Dec 15 23:15:49 2025","The main experiment item","False","stroop_task.osexp","C:\Users\jobay\Downloads","False","mono","False","25","40","80","no","white","no","yes","768","legacy","4","4","G:\class task\subject-6.csv","xpyriment","8","3","Neonatal Nightingale","4.1.6","0","q","NA","space","q","635.0","NA","1098","635","5268","space","2","legacy","1024","2","48000","-16","experiment","6","even","16117","15413","7681","NA","1307","15615","6583","16117","16752","15409","1312","STROOP_task","5","3932.0","5","1024"
"100","100","734","734","#3d3846","xpyriment","legacy","legacy","n","1","undefined","1","q","undefined","5","5","0","0","0","5","0","5","5","5","0","Mon Dec 15 23:15:49 2025","The main experiment item","False","stroop_task.osexp","C:\Users\jobay\Downloads","False","mono","False","25","60","60","no","white","no","yes","768","legacy","5","5","G:\class task\subject-6.csv","xpyriment","8","3","Neonatal Nightingale","4.1.6","0","q","NA","space","q","473.0","NA","1098","473","5268","space","2","legacy","1024","2","48000","-16","experiment","6","even","17756","17052","7681","NA","1307","17254","6583","17756","18230","17047","1312","STROOP_task","6","4405.0","6","1024"
"100","100","702","702","#3d3846","xpyriment","legacy","legacy","n","1","undefined","1","p","undefined","6","6","0","0","0","6","0","6","6","6","0","Mon Dec 15 23:15:49 2025","The main experiment item","False","stroop_task.osexp","C:\Users\jobay\Downloads","False","mono","False","25","60","60","no","white","no","yes","768","legacy","6","6","G:\class task\subject-6.csv","xpyriment","1","6","Neonatal Nightingale","4.1.6","0","p","NA","space","p","509.0","NA","1098","509","5268","space","2","legacy","1024","2","48000","-16","experiment","6","even","19191","18486","7681","NA","1307","18689","6583","19191","19700","18482","1312","STROOP_task","7","4914.0","7","1024"
"100","100","712","712","#3d3846","xpyriment","legacy","legacy","n","1","undefined","1","p","undefined","7","7","0","0","0","7","0","7","7","7","0","Mon Dec 15 23:15:49 2025","The main experiment item","False","stroop_task.osexp","C:\Users\jobay\Downloads","False","mono","False","25","60","60","no","white","no","yes","768","legacy","7","7","G:\class task\subject-6.csv","xpyriment","8","9","Neonatal Nightingale","4.1.6","0","p","NA","space","p","788.0","NA","1098","788","5268","space","2","legacy","1024","2","48000","-16","experiment","6","even","20648","19944","7681","NA","1307","20146","6583","20648","21436","19940","1312","STROOP_task","8","5702.0","8","1024"
"100","100","715","715","#3d3846","xpyriment","legacy","legacy","n","1","undefined","1","q","undefined","8","8","0","0","0","8","0","8","8","8","0","Mon Dec 15 23:15:49 2025","The main experiment item","False","stroop_task.osexp","C:\Users\jobay\Downloads","False","mono","False","25","60","60","no","white","no","yes","768","legacy","8","8","G:\class task\subject-6.csv","xpyriment","9","4","Neonatal Nightingale","4.1.6","0","q","NA","space","q","735.0","NA","1098","735","5268","space","2","legacy","1024","2","48000","-16","experiment","6","even","22428","21724","7681","NA","1307","21925","6583","22428","23164","21720","1312","STROOP_task","9","6437.0","9","1024"
"100","100","685","685","#3d3846","xpyriment","legacy","legacy","c","1","undefined","1","p","undefined","9","9","0","0","0","9","0","9","9","9","0","Mon Dec 15 23:15:49 2025","The main experiment item","False","stroop_task.osexp","C:\Users\jobay\Downloads","False","mono","False","25","40","80","no","white","no","yes","768","legacy","9","9","G:\class task\subject-6.csv","xpyriment","3","4","Neonatal Nightingale","4.1.6","0","p","NA","space","p","421.0","NA","1098","421","5268","space","2","legacy","1024","2","48000","-16","experiment","6","even","24143","23439","7681","NA","1307","23641","6583","24143","24564","23434","1312","STROOP_task","10","6858.0","10","1024"
"100","100","661","661","#3d3846","xpyriment","legacy","legacy","c","1","undefined","1","q","undefined","10","10","0","0","0","10","0","10","10","10","0","Mon Dec 15 23:15:49 2025","The main experiment item","False","stroop_task.osexp","C:\Users\jobay\Downloads","False","mono","False","25","80","40","no","white","no","yes","768","legacy","10","10","G:\class task\subject-6.csv","xpyriment","9","4","Neonatal Nightingale","4.1.6","0","q","NA","space","q","423.0","NA","1098","423","5268","space","2","legacy","1024","2","48000","-16","experiment","6","even","25559","24855","7681","NA","1307","25057","6583","25559","25983","24850","1312","STROOP_task","11","7281.0","11","1024"
"100","100","650","650","#3d3846","xpyriment","legacy","legacy","n","1","undefined","1","p","undefined","11","11","0","0","0","11","0","11","11","11","0","Mon Dec 15 23:15:49 2025","The main experiment item","False","stroop_task.osexp","C:\Users\jobay\Downloads","False","mono","False","25","60","60","no","white","no","yes","768","legacy","11","11","G:\class task\subject-6.csv","xpyriment","3","8","Neonatal Nightingale","4.1.6","0","p","NA","space","p","529.0","NA","1098","529","5268","space","2","legacy","1024","2","48000","-16","experiment","6","even","26975","26271","7681","NA","1307","26473","6583","26975","27504","26266","1312","STROOP_task","12","7810.0","12","1024"
"100","100","631","631","#3d3846","xpyriment","legacy","legacy","c","1","undefined","1","q","undefined","12","12","0","0","0","12","0","12","12","12","0","Mon Dec 15 23:15:49 2025","The main experiment item","False","stroop_task.osexp","C:\Users\jobay\Downloads","False","mono","False","25","80","40","no","white","no","yes","768","legacy","12","12","G:\class task\subject-6.csv","xpyriment","9","4","Neonatal Nightingale","4.1.6","0","q","NA","space","q","398.0","NA","1098","398","5268","space","2","legacy","1024","2","48000","-16","experiment","6","even","28494","27790","7681","NA","1307","27992","6583","28494","28892","27785","1312","STROOP_task","13","8208.0","13","1024"
"100","100","619","619","#3d3846","xpyriment","legacy","legacy","c","1","undefined","1","q","undefined","13","13","0","0","0","13","0","13","13","13","0","Mon Dec 15 23:15:49 2025","The main experiment item","False","stroop_task.osexp","C:\Users\jobay\Downloads","False","mono","False","25","80","40","no","white","no","yes","768","legacy","13","13","G:\class task\subject-6.csv","xpyriment","4","3","Neonatal Nightingale","4.1.6","0","q","NA","space","q","461.0","NA","1098","461","5268","space","2","legacy","1024","2","48000","-16","experiment","6","even","29894","29190","7681","NA","1307","29392","6583","29894","30355","29185","1312","STROOP_task","14","8669.0","14","1024"
"100","100","606","606","#3d3846","xpyriment","legacy","legacy","c","1","undefined","1","q","undefined","14","14","0","0","0","14","0","14","14","14","0","Mon Dec 15 23:15:49 2025","The main experiment item","False","stroop_task.osexp","C:\Users\jobay\Downloads","False","mono","False","25","80","40","no","white","no","yes","768","legacy","14","14","G:\class task\subject-6.csv","xpyriment","7","6","Neonatal Nightingale","4.1.6","0","q","NA","space","q","430.0","NA","1098","430","5268","space","2","legacy","1024","2","48000","-16","experiment","6","even","31368","30664","7681","NA","1307","30866","6583","31368","31799","30659","1312","STROOP_task","15","9099.0","15","1024"
"100","100","596","596","#3d3846","xpyriment","legacy","legacy","c","1","undefined","1","q","undefined","15","15","0","0","0","15","0","15","15","15","0","Mon Dec 15 23:15:49 2025","The main experiment item","False","stroop_task.osexp","C:\Users\jobay\Downloads","False","mono","False","25","80","40","no","white","no","yes","768","legacy","15","15","G:\class task\subject-6.csv","xpyriment","7","2","Neonatal Nightingale","4.1.6","0","q","NA","space","q","439.0","NA","1098","439","5268","space","2","legacy","1024","2","48000","-16","experiment","6","even","32796","32091","7681","NA","1307","32294","6583","32796","33236","32087","1312","STROOP_task","16","9538.0","16","1024"
"100","100","593","593","#3d3846","xpyriment","legacy","legacy","c","1","undefined","1","q","undefined","16","16","0","0","0","16","0","16","16","16","0","Mon Dec 15 23:15:49 2025","The main experiment item","False","stroop_task.osexp","C:\Users\jobay\Downloads","False","mono","False","25","80","40","no","white","no","yes","768","legacy","16","16","G:\class task\subject-6.csv","xpyriment","7","6","Neonatal Nightingale","4.1.6","0","q","NA","space","q","552.0","NA","1098","552","5268","space","2","legacy","1024","2","48000","-16","experiment","6","even","34223","33519","7681","NA","1307","33721","6583","34223","34776","33515","1312","STROOP_task","17","10090.0","17","1024"
"100","100","591","591","#3d3846","xpyriment","legacy","legacy","n","1","undefined","1","p","undefined","17","17","0","0","0","17","0","17","17","17","0","Mon Dec 15 23:15:49 2025","The main experiment item","False","stroop_task.osexp","C:\Users\jobay\Downloads","False","mono","False","25","60","60","no","white","no","yes","768","legacy","17","17","G:\class task\subject-6.csv","xpyriment","3","8","Neonatal Nightingale","4.1.6","0","p","NA","space","p","554.0","NA","1098","554","5268","space","2","legacy","1024","2","48000","-16","experiment","6","even","35753","35049","7681","NA","1307","35251","6583","35753","36307","35045","1312","STROOP_task","18","10644.0","18","1024"
"100","100","582","582","#3d3846","xpyriment","legacy","legacy","c","1","undefined","1","q","undefined","18","18","0","0","0","18","0","18","18","18","0","Mon Dec 15 23:15:49 2025","The main experiment item","False","stroop_task.osexp","C:\Users\jobay\Downloads","False","mono","False","25","80","40","no","white","no","yes","768","legacy","18","18","G:\class task\subject-6.csv","xpyriment","4","3","Neonatal Nightingale","4.1.6","0","q","NA","space","q","429.0","NA","1098","429","5268","space","2","legacy","1024","2","48000","-16","experiment","6","even","37295","36590","7681","NA","1307","36793","6583","37295","37725","36586","1312","STROOP_task","19","11073.0","19","1024"
"100","100","595","595","#3d3846","xpyriment","legacy","legacy","i","1","undefined","1","p","undefined","19","19","0","0","0","19","0","19","19","19","0","Mon Dec 15 23:15:49 2025","The main experiment item","False","stroop_task.osexp","C:\Users\jobay\Downloads","False","mono","False","25","80","40","no","white","no","yes","768","legacy","19","19","G:\class task\subject-6.csv","xpyriment","1","2","Neonatal Nightingale","4.1.6","0","p","NA","space","p","837.0","NA","1098","837","5268","space","2","legacy","1024","2","48000","-16","experiment","6","even","38748","38044","7681","NA","1307","38246","6583","38748","39585","38039","1312","STROOP_task","20","11910.0","20","1024"
"100","100","601","601","#3d3846","xpyriment","legacy","legacy","n","1","undefined","1","p","undefined","20","20","0","0","0","20","0","20","20","20","0","Mon Dec 15 23:15:49 2025","The main experiment item","False","stroop_task.osexp","C:\Users\jobay\Downloads","False","mono","False","25","60","60","no","white","no","yes","768","legacy","20","20","G:\class task\subject-6.csv","xpyriment","2","7","Neonatal Nightingale","4.1.6","0","p","NA","space","p","713.0","NA","1098","713","5268","space","2","legacy","1024","2","48000","-16","experiment","6","even","40549","39844","7681","NA","1307","40047","6583","40549","41262","39840","1312","STROOP_task","21","12623.0","21","1024"
"100","100","658","658","#3d3846","xpyriment","legacy","legacy","n","1","undefined","1","q","undefined","21","21","0","0","0","21","0","21","21","21","0","Mon Dec 15 23:15:49 2025","The main experiment item","False","stroop_task.osexp","C:\Users\jobay\Downloads","False","mono","False","25","60","60","no","white","no","yes","768","legacy","21","21","G:\class task\subject-6.csv","xpyriment","9","8","Neonatal Nightingale","4.1.6","0","q","NA","space","q","1853.0","NA","1098","1853","5268","space","2","legacy","1024","2","48000","-16","experiment","6","even","42224","41520","7681","NA","1307","41722","6583","42224","44078","41516","1312","STROOP_task","22","14476.0","22","1024"
"100","100","653","653","#3d3846","xpyriment","legacy","legacy","c","1","undefined","1","p","undefined","22","22","0","0","0","22","0","22","22","22","0","Mon Dec 15 23:15:49 2025","The main experiment item","False","stroop_task.osexp","C:\Users\jobay\Downloads","False","mono","False","25","40","80","no","white","no","yes","768","legacy","22","22","G:\class task\subject-6.csv","xpyriment","8","9","Neonatal Nightingale","4.1.6","0","p","NA","space","p","561.0","NA","1098","561","5268","space","2","legacy","1024","2","48000","-16","experiment","6","even","45040","44335","7681","NA","1307","44538","6583","45040","45602","44331","1312","STROOP_task","23","15037.0","23","1024"
"100","100","651","651","#3d3846","xpyriment","legacy","legacy","c","1","undefined","1","q","undefined","23","23","0","0","0","23","0","23","23","23","0","Mon Dec 15 23:15:49 2025","The main experiment item","False","stroop_task.osexp","C:\Users\jobay\Downloads","False","mono","False","25","80","40","no","white","no","yes","768","legacy","23","23","G:\class task\subject-6.csv","xpyriment","8","3","Neonatal Nightingale","4.1.6","0","q","NA","space","q","602.0","NA","1098","602","5268","space","2","legacy","1024","2","48000","-16","experiment","6","even","46572","45868","7681","NA","1307","46070","6583","46572","47174","45864","1312","STROOP_task","24","15639.0","24","1024"
"100","100","647","647","#3d3846","xpyriment","legacy","legacy","c","1","undefined","1","p","undefined","24","24","0","0","0","24","0","24","24","24","0","Mon Dec 15 23:15:49 2025","The main experiment item","False","stroop_task.osexp","C:\Users\jobay\Downloads","False","mono","False","25","40","80","no","white","no","yes","768","legacy","24","24","G:\class task\subject-6.csv","xpyriment","1","2","Neonatal Nightingale","4.1.6","0","p","NA","space","p","549.0","NA","1098","549","5268","space","2","legacy","1024","2","48000","-16","experiment","6","even","48140","47436","7681","NA","1307","47638","6583","48140","48689","47431","1312","STROOP_task","25","16188.0","25","1024"
"100","100","650","650","#3d3846","xpyriment","legacy","legacy","i","1","undefined","1","q","undefined","25","25","0","0","0","25","0","25","25","25","0","Mon Dec 15 23:15:49 2025","The main experiment item","False","stroop_task.osexp","C:\Users\jobay\Downloads","False","mono","False","25","40","80","no","white","no","yes","768","legacy","25","25","G:\class task\subject-6.csv","xpyriment","6","1","Neonatal Nightingale","4.1.6","0","q","NA","space","q","737.0","NA","1098","737","5268","space","2","legacy","1024","2","48000","-16","experiment","6","even","49652","48948","7681","NA","1307","49150","6583","49652","50390","48944","1312","STROOP_task","26","16925.0","26","1024"
"100","100","693","693","#3d3846","xpyriment","legacy","legacy","n","1","undefined","1","q","undefined","26","26","0","0","0","26","0","26","26","26","0","Mon Dec 15 23:15:49 2025","The main experiment item","False","stroop_task.osexp","C:\Users\jobay\Downloads","False","mono","False","25","60","60","no","white","no","yes","768","legacy","26","26","G:\class task\subject-6.csv","xpyriment","4","3","Neonatal Nightingale","4.1.6","0","q","NA","space","q","1790.0","NA","1098","1790","5268","space","2","legacy","1024","2","48000","-16","experiment","6","even","51347","50643","7681","NA","1307","50845","6583","51347","53137","50639","1312","STROOP_task","27","18715.0","27","1024"
"100","100","686","686","#3d3846","xpyriment","legacy","legacy","c","1","undefined","1","q","undefined","27","27","0","0","0","27","0","27","27","27","0","Mon Dec 15 23:15:49 2025","The main experiment item","False","stroop_task.osexp","C:\Users\jobay\Downloads","False","mono","False","25","80","40","no","white","no","yes","768","legacy","27","27","G:\class task\subject-6.csv","xpyriment","6","1","Neonatal Nightingale","4.1.6","0","q","NA","space","q","518.0","NA","1098","518","5268","space","2","legacy","1024","2","48000","-16","experiment","6","even","54100","53396","7681","NA","1307","53598","6583","54100","54618","53393","1312","STROOP_task","28","19233.0","28","1024"
"100","100","682","682","#3d3846","xpyriment","legacy","legacy","n","1","undefined","1","q","undefined","28","28","0","0","0","28","0","28","28","28","0","Mon Dec 15 23:15:49 2025","The main experiment item","False","stroop_task.osexp","C:\Users\jobay\Downloads","False","mono","False","25","60","60","no","white","no","yes","768","legacy","28","28","G:\class task\subject-6.csv","xpyriment","2","1","Neonatal Nightingale","4.1.6","0","q","NA","space","q","565.0","NA","1098","565","5268","space","2","legacy","1024","2","48000","-16","experiment","6","even","55580","54876","7681","NA","1307","55078","6583","55580","56145","54871","1312","STROOP_task","29","19798.0","29","1024"
"100","100","705","705","#3d3846","xpyriment","legacy","legacy","n","1","undefined","1","p","undefined","29","29","0","0","0","29","0","29","29","29","0","Mon Dec 15 23:15:49 2025","The main experiment item","False","stroop_task.osexp","C:\Users\jobay\Downloads","False","mono","False","25","60","60","no","white","no","yes","768","legacy","29","29","G:\class task\subject-6.csv","xpyriment","3","4","Neonatal Nightingale","4.1.6","0","p","NA","space","p","1354.0","NA","1098","1354","5268","space","2","legacy","1024","2","48000","-16","experiment","6","even","57103","56399","7681","NA","1307","56601","6583","57103","58457","56395","1312","STROOP_task","30","21152.0","30","1024"
"100","100","705","705","#3d3846","xpyriment","legacy","legacy","n","1","undefined","1","q","undefined","30","30","0","0","0","30","0","30","30","30","0","Mon Dec 15 23:15:49 2025","The main experiment item","False","stroop_task.osexp","C:\Users\jobay\Downloads","False","mono","False","25","60","60","no","white","no","yes","768","legacy","30","30","G:\class task\subject-6.csv","xpyriment","4","3","Neonatal Nightingale","4.1.6","0","q","NA","space","q","708.0","NA","1098","708","5268","space","2","legacy","1024","2","48000","-16","experiment","6","even","59442","58738","7681","NA","1307","58940","6583","59442","60151","58734","1312","STROOP_task","31","21860.0","31","1024"
"100","100","703","703","#3d3846","xpyriment","legacy","legacy","c","1","undefined","1","q","undefined","31","31","0","0","0","31","0","31","31","31","0","Mon Dec 15 23:15:49 2025","The main experiment item","False","stroop_task.osexp","C:\Users\jobay\Downloads","False","mono","False","25","80","40","no","white","no","yes","768","legacy","31","31","G:\class task\subject-6.csv","xpyriment","9","4","Neonatal Nightingale","4.1.6","0","q","NA","space","q","666.0","NA","1098","666","5268","space","2","legacy","1024","2","48000","-16","experiment","6","even","61143","60439","7681","NA","1307","60641","6583","61143","61810","60435","1312","STROOP_task","32","22526.0","32","1024"
"100","100","717","717","#3d3846","xpyriment","legacy","legacy","n","1","undefined","1","p","undefined","32","32","0","0","0","32","0","32","32","32","0","Mon Dec 15 23:15:49 2025","The main experiment item","False","stroop_task.osexp","C:\Users\jobay\Downloads","False","mono","False","25","60","60","no","white","no","yes","768","legacy","32","32","G:\class task\subject-6.csv","xpyriment","3","4","Neonatal Nightingale","4.1.6","0","p","NA","space","p","1141.0","NA","1098","1141","5268","space","2","legacy","1024","2","48000","-16","experiment","6","even","62743","62039","7681","NA","1307","62241","6583","62743","63885","62034","1312","STROOP_task","33","23667.0","33","1024"
"97","97","713","713","#3d3846","xpyriment","legacy","legacy","i","0","undefined","0","p","undefined","33","33","0","0","0","33","0","33","33","33","0","Mon Dec 15 23:15:49 2025","The main experiment item","False","stroop_task.osexp","C:\Users\jobay\Downloads","False","mono","False","25","80","40","no","white","no","yes","768","legacy","33","33","G:\class task\subject-6.csv","xpyriment","3","4","Neonatal Nightingale","4.1.6","0","q","NA","space","q","605.0","NA","1098","605","5268","space","2","legacy","1024","2","48000","-16","experiment","6","even","64882","64178","7681","NA","1307","64380","6583","64882","65488","64174","1312","STROOP_task","33","24272.0","34","1024"
"97","97","707","707","#3d3846","xpyriment","legacy","legacy","c","1","undefined","1","q","undefined","34","34","0","0","0","34","0","34","34","34","0","Mon Dec 15 23:15:49 2025","The main experiment item","False","stroop_task.osexp","C:\Users\jobay\Downloads","False","mono","False","25","80","40","no","white","no","yes","768","legacy","34","34","G:\class task\subject-6.csv","xpyriment","6","1","Neonatal Nightingale","4.1.6","0","q","NA","space","q","492.0","NA","1098","492","5268","space","2","legacy","1024","2","48000","-16","experiment","6","even","66471","65767","7681","NA","1307","65969","6583","66471","66964","65763","1312","STROOP_task","34","24764.0","35","1024"
"97","97","709","709","#3d3846","xpyriment","legacy","legacy","i","1","undefined","1","p","undefined","35","35","0","0","0","35","0","35","35","35","0","Mon Dec 15 23:15:49 2025","The main experiment item","False","stroop_task.osexp","C:\Users\jobay\Downloads","False","mono","False","25","80","40","no","white","no","yes","768","legacy","35","35","G:\class task\subject-6.csv","xpyriment","3","4","Neonatal Nightingale","4.1.6","0","p","NA","space","p","790.0","NA","1098","790","5268","space","2","legacy","1024","2","48000","-16","experiment","6","even","67937","67233","7681","NA","1307","67435","6583","67937","68728","67229","1312","STROOP_task","35","25554.0","36","1024"
"97","97","706","706","#3d3846","xpyriment","legacy","legacy","i","1","undefined","1","q","undefined","36","36","0","0","0","36","0","36","36","36","0","Mon Dec 15 23:15:49 2025","The main experiment item","False","stroop_task.osexp","C:\Users\jobay\Downloads","False","mono","False","25","40","80","no","white","no","yes","768","legacy","36","36","G:\class task\subject-6.csv","xpyriment","7","2","Neonatal Nightingale","4.1.6","0","q","NA","space","q","594.0","NA","1098","594","5268","space","2","legacy","1024","2","48000","-16","experiment","6","even","69690","68986","7681","NA","1307","69188","6583","69690","70285","68982","1312","STROOP_task","36","26148.0","37","1024"
"97","97","705","705","#3d3846","xpyriment","legacy","legacy","c","1","undefined","1","p","undefined","37","37","0","0","0","37","0","37","37","37","0","Mon Dec 15 23:15:49 2025","The main experiment item","False","stroop_task.osexp","C:\Users\jobay\Downloads","False","mono","False","25","40","80","no","white","no","yes","768","legacy","37","37","G:\class task\subject-6.csv","xpyriment","3","4","Neonatal Nightingale","4.1.6","0","p","NA","space","p","642.0","NA","1098","642","5268","space","2","legacy","1024","2","48000","-16","experiment","6","even","71248","70544","7681","NA","1307","70746","6583","71248","71891","70540","1312","STROOP_task","37","26790.0","38","1024"
"97","97","705","705","#3d3846","xpyriment","legacy","legacy","i","1","undefined","1","q","undefined","38","38","0","0","0","38","0","38","38","38","0","Mon Dec 15 23:15:49 2025","The main experiment item","False","stroop_task.osexp","C:\Users\jobay\Downloads","False","mono","False","25","40","80","no","white","no","yes","768","legacy","38","38","G:\class task\subject-6.csv","xpyriment","2","1","Neonatal Nightingale","4.1.6","0","q","NA","space","q","708.0","NA","1098","708","5268","space","2","legacy","1024","2","48000","-16","experiment","6","even","72790","72085","7681","NA","1307","72288","6583","72790","73498","72081","1312","STROOP_task","38","27498.0","39","1024"
"97","97","701","701","#3d3846","xpyriment","legacy","legacy","c","1","undefined","1","p","undefined","39","39","0","0","0","39","0","39","39","39","0","Mon Dec 15 23:15:49 2025","The main experiment item","False","stroop_task.osexp","C:\Users\jobay\Downloads","False","mono","False","25","40","80","no","white","no","yes","768","legacy","39","39","G:\class task\subject-6.csv","xpyriment","3","4","Neonatal Nightingale","4.1.6","0","p","NA","space","p","576.0","NA","1098","576","5268","space","2","legacy","1024","2","48000","-16","experiment","6","even","74458","73754","7681","NA","1307","73956","6583","74458","75034","73750","1312","STROOP_task","39","28074.0","40","1024"
"97","97","708","708","#3d3846","xpyriment","legacy","legacy","c","1","undefined","1","p","undefined","40","40","0","0","0","40","0","40","40","40","0","Mon Dec 15 23:15:49 2025","The main experiment item","False","stroop_task.osexp","C:\Users\jobay\Downloads","False","mono","False","25","40","80","no","white","no","yes","768","legacy","40","40","G:\class task\subject-6.csv","xpyriment","6","7","Neonatal Nightingale","4.1.6","0","p","NA","space","p","994.0","NA","1098","994","5268","space","2","legacy","1024","2","48000","-16","experiment","6","even","75983","75279","7681","NA","1307","75481","6583","75983","76978","75274","1312","STROOP_task","40","29068.0","41","1024"
"97","97","704","704","#3d3846","xpyriment","legacy","legacy","c","1","undefined","1","p","undefined","41","41","0","0","0","41","0","41","41","41","0","Mon Dec 15 23:15:49 2025","The main experiment item","False","stroop_task.osexp","C:\Users\jobay\Downloads","False","mono","False","25","40","80","no","white","no","yes","768","legacy","41","41","G:\class task\subject-6.csv","xpyriment","6","7","Neonatal Nightingale","4.1.6","0","p","NA","space","p","532.0","NA","1098","532","5268","space","2","legacy","1024","2","48000","-16","experiment","6","even","77907","77201","7681","NA","1307","77403","6583","77907","78440","77197","1312","STROOP_task","41","29600.0","42","1024"
"97","97","704","704","#3d3846","xpyriment","legacy","legacy","c","1","undefined","1","p","undefined","42","42","0","0","0","42","0","42","42","42","0","Mon Dec 15 23:15:49 2025","The main experiment item","False","stroop_task.osexp","C:\Users\jobay\Downloads","False","mono","False","25","40","80","no","white","no","yes","768","legacy","42","42","G:\class task\subject-6.csv","xpyriment","3","8","Neonatal Nightingale","4.1.6","0","p","NA","space","p","675.0","NA","1098","675","5268","space","2","legacy","1024","2","48000","-16","experiment","6","even","79403","78698","7681","NA","1307","78900","6583","79403","80078","78694","1312","STROOP_task","42","30275.0","43","1024"
"97","97","702","702","#3d3846","xpyriment","legacy","legacy","c","1","undefined","1","q","undefined","43","43","0","0","0","43","0","43","43","43","0","Mon Dec 15 23:15:49 2025","The main experiment item","False","stroop_task.osexp","C:\Users\jobay\Downloads","False","mono","False","25","80","40","no","white","no","yes","768","legacy","43","43","G:\class task\subject-6.csv","xpyriment","4","3","Neonatal Nightingale","4.1.6","0","q","NA","space","q","621.0","NA","1098","621","5268","space","2","legacy","1024","2","48000","-16","experiment","6","even","81055","80351","7681","NA","1307","80553","6583","81055","81676","80347","1312","STROOP_task","43","30896.0","44","1024"
"97","97","708","708","#3d3846","xpyriment","legacy","legacy","i","1","undefined","1","q","undefined","44","44","0","0","0","44","0","44","44","44","0","Mon Dec 15 23:15:49 2025","The main experiment item","False","stroop_task.osexp","C:\Users\jobay\Downloads","False","mono","False","25","40","80","no","white","no","yes","768","legacy","44","44","G:\class task\subject-6.csv","xpyriment","8","3","Neonatal Nightingale","4.1.6","0","q","NA","space","q","983.0","NA","1098","983","5268","space","2","legacy","1024","2","48000","-16","experiment","6","even","82640","81936","7681","NA","1307","82138","6583","82640","83624","81932","1312","STROOP_task","44","31879.0","45","1024"
"97","97","707","707","#3d3846","xpyriment","legacy","legacy","c","1","undefined","1","q","undefined","45","45","0","0","0","45","0","45","45","45","0","Mon Dec 15 23:15:49 2025","The main experiment item","False","stroop_task.osexp","C:\Users\jobay\Downloads","False","mono","False","25","80","40","no","white","no","yes","768","legacy","45","45","G:\class task\subject-6.csv","xpyriment","7","6","Neonatal Nightingale","4.1.6","0","q","NA","space","q","675.0","NA","1098","675","5268","space","2","legacy","1024","2","48000","-16","experiment","6","even","84598","83894","7681","NA","1307","84096","6583","84598","85274","83890","1312","STROOP_task","45","32554.0","46","1024"
"97","97","706","706","#3d3846","xpyriment","legacy","legacy","c","1","undefined","1","p","undefined","46","46","0","0","0","46","0","46","46","46","0","Mon Dec 15 23:15:49 2025","The main experiment item","False","stroop_task.osexp","C:\Users\jobay\Downloads","False","mono","False","25","40","80","no","white","no","yes","768","legacy","46","46","G:\class task\subject-6.csv","xpyriment","2","7","Neonatal Nightingale","4.1.6","0","p","NA","space","p","672.0","NA","1098","672","5268","space","2","legacy","1024","2","48000","-16","experiment","6","even","86259","85554","7681","NA","1307","85757","6583","86259","86932","85550","1312","STROOP_task","46","33226.0","47","1024"
"97","97","704","704","#3d3846","xpyriment","legacy","legacy","c","1","undefined","1","p","undefined","47","47","0","0","0","47","0","47","47","47","0","Mon Dec 15 23:15:49 2025","The main experiment item","False","stroop_task.osexp","C:\Users\jobay\Downloads","False","mono","False","25","40","80","no","white","no","yes","768","legacy","47","47","G:\class task\subject-6.csv","xpyriment","2","7","Neonatal Nightingale","4.1.6","0","p","NA","space","p","570.0","NA","1098","570","5268","space","2","legacy","1024","2","48000","-16","experiment","6","even","87918","87214","7681","NA","1307","87416","6583","87918","88489","87209","1312","STROOP_task","47","33796.0","48","1024"
"97","97","704","704","#3d3846","xpyriment","legacy","legacy","n","1","undefined","1","q","undefined","48","48","0","0","0","48","0","48","48","48","0","Mon Dec 15 23:15:49 2025","The main experiment item","False","stroop_task.osexp","C:\Users\jobay\Downloads","False","mono","False","25","60","60","no","white","no","yes","768","legacy","48","48","G:\class task\subject-6.csv","xpyriment","6","1","Neonatal Nightingale","4.1.6","0","q","NA","space","q","709.0","NA","1098","709","5268","space","2","legacy","1024","2","48000","-16","experiment","6","even","89483","88779","7681","NA","1307","88981","6583","89483","90192","88775","1312","STROOP_task","48","34505.0","49","1024"
"98","98","704","704","#3d3846","xpyriment","legacy","legacy","n","1","undefined","1","q","undefined","49","49","0","0","0","49","0","49","49","49","0","Mon Dec 15 23:15:49 2025","The main experiment item","False","stroop_task.osexp","C:\Users\jobay\Downloads","False","mono","False","25","60","60","no","white","no","yes","768","legacy","49","49","G:\class task\subject-6.csv","xpyriment","7","6","Neonatal Nightingale","4.1.6","0","q","NA","space","q","710.0","NA","1098","710","5268","space","2","legacy","1024","2","48000","-16","experiment","6","even","91181","90477","7681","NA","1307","90679","6583","91181","91892","90473","1312","STROOP_task","49","35215.0","50","1024"
"98","98","706","706","#3d3846","xpyriment","legacy","legacy","n","1","undefined","1","q","undefined","50","50","0","0","0","50","0","50","50","50","0","Mon Dec 15 23:15:49 2025","The main experiment item","False","stroop_task.osexp","C:\Users\jobay\Downloads","False","mono","False","25","60","60","no","white","no","yes","768","legacy","50","50","G:\class task\subject-6.csv","xpyriment","2","1","Neonatal Nightingale","4.1.6","0","q","NA","space","q","839.0","NA","1098","839","5268","space","2","legacy","1024","2","48000","-16","experiment","6","even","92883","92179","7681","NA","1307","92381","6583","92883","93723","92175","1312","STROOP_task","50","36054.0","51","1024"
"98","98","707","707","#3d3846","xpyriment","legacy","legacy","n","1","undefined","1","p","undefined","51","51","0","0","0","51","0","51","51","51","0","Mon Dec 15 23:15:49 2025","The main experiment item","False","stroop_task.osexp","C:\Users\jobay\Downloads","False","mono","False","25","60","60","no","white","no","yes","768","legacy","51","51","G:\class task\subject-6.csv","xpyriment","4","9","Neonatal Nightingale","4.1.6","0","p","NA","space","p","735.0","NA","1098","735","5268","space","2","legacy","1024","2","48000","-16","experiment","6","even","94710","94006","7681","NA","1307","94208","6583","94710","95446","94001","1312","STROOP_task","51","36789.0","52","1024"
"98","98","703","703","#3d3846","xpyriment","legacy","legacy","n","1","undefined","1","p","undefined","52","52","0","0","0","52","0","52","52","52","0","Mon Dec 15 23:15:49 2025","The main experiment item","False","stroop_task.osexp","C:\Users\jobay\Downloads","False","mono","False","25","60","60","no","white","no","yes","768","legacy","52","52","G:\class task\subject-6.csv","xpyriment","4","9","Neonatal Nightingale","4.1.6","0","p","NA","space","p","515.0","NA","1098","515","5268","space","2","legacy","1024","2","48000","-16","experiment","6","even","96437","95733","7681","NA","1307","95935","6583","96437","96952","95729","1312","STROOP_task","52","37304.0","53","1024"
"98","98","703","703","#3d3846","xpyriment","legacy","legacy","c","1","undefined","1","p","undefined","53","53","0","0","0","53","0","53","53","53","0","Mon Dec 15 23:15:49 2025","The main experiment item","False","stroop_task.osexp","C:\Users\jobay\Downloads","False","mono","False","25","40","80","no","white","no","yes","768","legacy","53","53","G:\class task\subject-6.csv","xpyriment","3","8","Neonatal Nightingale","4.1.6","0","p","NA","space","p","664.0","NA","1098","664","5268","space","2","legacy","1024","2","48000","-16","experiment","6","even","97920","97216","7681","NA","1307","97418","6583","97920","98584","97212","1312","STROOP_task","53","37968.0","54","1024"
"98","98","704","704","#3d3846","xpyriment","legacy","legacy","c","1","undefined","1","p","undefined","54","54","0","0","0","54","0","54","54","54","0","Mon Dec 15 23:15:49 2025","The main experiment item","False","stroop_task.osexp","C:\Users\jobay\Downloads","False","mono","False","25","40","80","no","white","no","yes","768","legacy","54","54","G:\class task\subject-6.csv","xpyriment","4","9","Neonatal Nightingale","4.1.6","0","p","NA","space","p","773.0","NA","1098","773","5268","space","2","legacy","1024","2","48000","-16","experiment","6","even","99542","98838","7681","NA","1307","99040","6583","99542","100315","98834","1312","STROOP_task","54","38741.0","55","1024"
"98","98","710","710","#3d3846","xpyriment","legacy","legacy","n","1","undefined","1","p","undefined","55","55","0","0","0","55","0","55","55","55","0","Mon Dec 15 23:15:49 2025","The main experiment item","False","stroop_task.osexp","C:\Users\jobay\Downloads","False","mono","False","25","60","60","no","white","no","yes","768","legacy","55","55","G:\class task\subject-6.csv","xpyriment","3","4","Neonatal Nightingale","4.1.6","0","p","NA","space","p","1027.0","NA","1098","1027","5268","space","2","legacy","1024","2","48000","-16","experiment","6","even","101291","100586","7681","NA","1307","100789","6583","101291","102319","100582","1312","STROOP_task","55","39768.0","56","1024"
"98","98","708","708","#3d3846","xpyriment","legacy","legacy","c","1","undefined","1","p","undefined","56","56","0","0","0","56","0","56","56","56","0","Mon Dec 15 23:15:49 2025","The main experiment item","False","stroop_task.osexp","C:\Users\jobay\Downloads","False","mono","False","25","40","80","no","white","no","yes","768","legacy","56","56","G:\class task\subject-6.csv","xpyriment","1","6","Neonatal Nightingale","4.1.6","0","p","NA","space","p","588.0","NA","1098","588","5268","space","2","legacy","1024","2","48000","-16","experiment","6","even","103284","102578","7681","NA","1307","102780","6583","103284","103872","102574","1312","STROOP_task","56","40356.0","57","1024"
"98","98","706","706","#3d3846","xpyriment","legacy","legacy","c","1","undefined","1","p","undefined","57","57","0","0","0","57","0","57","57","57","0","Mon Dec 15 23:15:49 2025","The main experiment item","False","stroop_task.osexp","C:\Users\jobay\Downloads","False","mono","False","25","40","80","no","white","no","yes","768","legacy","57","57","G:\class task\subject-6.csv","xpyriment","2","7","Neonatal Nightingale","4.1.6","0","p","NA","space","p","607.0","NA","1098","607","5268","space","2","legacy","1024","2","48000","-16","experiment","6","even","104850","104146","7681","NA","1307","104348","6583","104850","105458","104141","1312","STROOP_task","57","40963.0","58","1024"
"98","98","706","706","#3d3846","xpyriment","legacy","legacy","i","1","undefined","1","q","undefined","58","58","0","0","0","58","0","58","58","58","0","Mon Dec 15 23:15:49 2025","The main experiment item","False","stroop_task.osexp","C:\Users\jobay\Downloads","False","mono","False","25","40","80","no","white","no","yes","768","legacy","58","58","G:\class task\subject-6.csv","xpyriment","9","4","Neonatal Nightingale","4.1.6","0","q","NA","space","q","724.0","NA","1098","724","5268","space","2","legacy","1024","2","48000","-16","experiment","6","even","106429","105722","7681","NA","1307","105927","6583","106429","107153","105718","1312","STROOP_task","58","41687.0","59","1024"
"98","98","705","705","#3d3846","xpyriment","legacy","legacy","i","1","undefined","1","p","undefined","59","59","0","0","0","59","0","59","59","59","0","Mon Dec 15 23:15:49 2025","The main experiment item","False","stroop_task.osexp","C:\Users\jobay\Downloads","False","mono","False","25","80","40","no","white","no","yes","768","legacy","59","59","G:\class task\subject-6.csv","xpyriment","2","7","Neonatal Nightingale","4.1.6","0","p","NA","space","p","648.0","NA","1098","648","5268","space","2","legacy","1024","2","48000","-16","experiment","6","even","108131","107427","7681","NA","1307","107629","6583","108131","108780","107422","1312","STROOP_task","59","42335.0","60","1024"
"98","98","706","706","#3d3846","xpyriment","legacy","legacy","i","1","undefined","1","q","undefined","60","60","0","0","0","60","0","60","60","60","0","Mon Dec 15 23:15:49 2025","The main experiment item","False","stroop_task.osexp","C:\Users\jobay\Downloads","False","mono","False","25","40","80","no","white","no","yes","768","legacy","60","60","G:\class task\subject-6.csv","xpyriment","2","1","Neonatal Nightingale","4.1.6","0","q","NA","space","q","787.0","NA","1098","787","5268","space","2","legacy","1024","2","48000","-16","experiment","6","even","109756","109052","7681","NA","1307","109254","6583","109756","110544","109048","1312","STROOP_task","60","43122.0","61","1024"
"98","98","715","715","#3d3846","xpyriment","legacy","legacy","i","1","undefined","1","p","undefined","61","61","0","0","0","61","0","61","61","61","0","Mon Dec 15 23:15:49 2025","The main experiment item","False","stroop_task.osexp","C:\Users\jobay\Downloads","False","mono","False","25","80","40","no","white","no","yes","768","legacy","61","61","G:\class task\subject-6.csv","xpyriment","3","4","Neonatal Nightingale","4.1.6","0","p","NA","space","p","1238.0","NA","1098","1238","5268","space","2","legacy","1024","2","48000","-16","experiment","6","even","111505","110801","7681","NA","1307","111003","6583","111505","112744","110797","1312","STROOP_task","61","44360.0","62","1024"
"98","98","716","716","#3d3846","xpyriment","legacy","legacy","i","1","undefined","1","p","undefined","62","62","0","0","0","62","0","62","62","62","0","Mon Dec 15 23:15:49 2025","The main experiment item","False","stroop_task.osexp","C:\Users\jobay\Downloads","False","mono","False","25","80","40","no","white","no","yes","768","legacy","62","62","G:\class task\subject-6.csv","xpyriment","6","7","Neonatal Nightingale","4.1.6","0","p","NA","space","p","779.0","NA","1098","779","5268","space","2","legacy","1024","2","48000","-16","experiment","6","even","113714","113010","7681","NA","1307","113212","6583","113714","114493","113006","1312","STROOP_task","62","45139.0","63","1024"
"98","98","716","716","#3d3846","xpyriment","legacy","legacy","n","1","undefined","1","q","undefined","63","63","0","0","0","63","0","63","63","63","0","Mon Dec 15 23:15:49 2025","The main experiment item","False","stroop_task.osexp","C:\Users\jobay\Downloads","False","mono","False","25","60","60","no","white","no","yes","768","legacy","63","63","G:\class task\subject-6.csv","xpyriment","9","4","Neonatal Nightingale","4.1.6","0","q","NA","space","q","701.0","NA","1098","701","5268","space","2","legacy","1024","2","48000","-16","experiment","6","even","115485","114781","7681","NA","1307","114983","6583","115485","116187","114777","1312","STROOP_task","63","45840.0","64","1024"
"98","98","714","714","#3d3846","xpyriment","legacy","legacy","c","1","undefined","1","p","undefined","64","64","0","0","0","64","0","64","64","64","0","Mon Dec 15 23:15:49 2025","The main experiment item","False","stroop_task.osexp","C:\Users\jobay\Downloads","False","mono","False","25","40","80","no","white","no","yes","768","legacy","64","64","G:\class task\subject-6.csv","xpyriment","6","7","Neonatal Nightingale","4.1.6","0","p","NA","space","p","591.0","NA","1098","591","5268","space","2","legacy","1024","2","48000","-16","experiment","6","even","117168","116464","7681","NA","1307","116666","6583","117168","117760","116459","1312","STROOP_task","64","46431.0","65","1024"
"98","98","714","714","#3d3846","xpyriment","legacy","legacy","i","1","undefined","1","q","undefined","65","65","0","0","0","65","0","65","65","65","0","Mon Dec 15 23:15:49 2025","The main experiment item","False","stroop_task.osexp","C:\Users\jobay\Downloads","False","mono","False","25","40","80","no","white","no","yes","768","legacy","65","65","G:\class task\subject-6.csv","xpyriment","2","1","Neonatal Nightingale","4.1.6","0","q","NA","space","q","725.0","NA","1098","725","5268","space","2","legacy","1024","2","48000","-16","experiment","6","even","118756","118052","7681","NA","1307","118254","6583","118756","119482","118047","1312","STROOP_task","65","47156.0","66","1024"
"98","98","714","714","#3d3846","xpyriment","legacy","legacy","n","1","undefined","1","q","undefined","66","66","0","0","0","66","0","66","66","66","0","Mon Dec 15 23:15:49 2025","The main experiment item","False","stroop_task.osexp","C:\Users\jobay\Downloads","False","mono","False","25","60","60","no","white","no","yes","768","legacy","66","66","G:\class task\subject-6.csv","xpyriment","8","3","Neonatal Nightingale","4.1.6","0","q","NA","space","q","709.0","NA","1098","709","5268","space","2","legacy","1024","2","48000","-16","experiment","6","even","120470","119766","7681","NA","1307","119968","6583","120470","121180","119761","1312","STROOP_task","66","47865.0","67","1024"
"98","98","716","716","#3d3846","xpyriment","legacy","legacy","i","1","undefined","1","p","undefined","67","67","0","0","0","67","0","67","67","67","0","Mon Dec 15 23:15:49 2025","The main experiment item","False","stroop_task.osexp","C:\Users\jobay\Downloads","False","mono","False","25","80","40","no","white","no","yes","768","legacy","67","67","G:\class task\subject-6.csv","xpyriment","8","9","Neonatal Nightingale","4.1.6","0","p","NA","space","p","880.0","NA","1098","880","5268","space","2","legacy","1024","2","48000","-16","experiment","6","even","122185","121481","7681","NA","1307","121683","6583","122185","123066","121477","1312","STROOP_task","67","48745.0","68","1024"
"98","98","715","715","#3d3846","xpyriment","legacy","legacy","c","1","undefined","1","p","undefined","68","68","0","0","0","68","0","68","68","68","0","Mon Dec 15 23:15:49 2025","The main experiment item","False","stroop_task.osexp","C:\Users\jobay\Downloads","False","mono","False","25","40","80","no","white","no","yes","768","legacy","68","68","G:\class task\subject-6.csv","xpyriment","4","9","Neonatal Nightingale","4.1.6","0","p","NA","space","p","644.0","NA","1098","644","5268","space","2","legacy","1024","2","48000","-16","experiment","6","even","124047","123343","7681","NA","1307","123545","6583","124047","124692","123339","1312","STROOP_task","68","49389.0","69","1024"
"98","98","714","714","#3d3846","xpyriment","legacy","legacy","n","1","undefined","1","q","undefined","69","69","0","0","0","69","0","69","69","69","0","Mon Dec 15 23:15:49 2025","The main experiment item","False","stroop_task.osexp","C:\Users\jobay\Downloads","False","mono","False","25","60","60","no","white","no","yes","768","legacy","69","69","G:\class task\subject-6.csv","xpyriment","2","1","Neonatal Nightingale","4.1.6","0","q","NA","space","q","631.0","NA","1098","631","5268","space","2","legacy","1024","2","48000","-16","experiment","6","even","125674","124970","7681","NA","1307","125172","6583","125674","126306","124966","1312","STROOP_task","69","50020.0","70","1024"
"98","98","711","711","#3d3846","xpyriment","legacy","legacy","c","1","undefined","1","p","undefined","70","70","0","0","0","70","0","70","70","70","0","Mon Dec 15 23:15:49 2025","The main experiment item","False","stroop_task.osexp","C:\Users\jobay\Downloads","False","mono","False","25","40","80","no","white","no","yes","768","legacy","70","70","G:\class task\subject-6.csv","xpyriment","3","8","Neonatal Nightingale","4.1.6","0","p","NA","space","p","475.0","NA","1098","475","5268","space","2","legacy","1024","2","48000","-16","experiment","6","even","127327","126623","7681","NA","1307","126825","6583","127327","127802","126618","1312","STROOP_task","70","50495.0","71","1024"
"98","98","710","710","#3d3846","xpyriment","legacy","legacy","i","1","undefined","1","p","undefined","71","71","0","0","0","71","0","71","71","71","0","Mon Dec 15 23:15:49 2025","The main experiment item","False","stroop_task.osexp","C:\Users\jobay\Downloads","False","mono","False","25","80","40","no","white","no","yes","768","legacy","71","71","G:\class task\subject-6.csv","xpyriment","3","8","Neonatal Nightingale","4.1.6","0","p","NA","space","p","674.0","NA","1098","674","5268","space","2","legacy","1024","2","48000","-16","experiment","6","even","128762","128057","7681","NA","1307","128260","6583","128762","129437","128053","1312","STROOP_task","71","51169.0","72","1024"
"98","98","710","710","#3d3846","xpyriment","legacy","legacy","n","1","undefined","1","p","undefined","72","72","0","0","0","72","0","72","72","72","0","Mon Dec 15 23:15:49 2025","The main experiment item","False","stroop_task.osexp","C:\Users\jobay\Downloads","False","mono","False","25","60","60","no","white","no","yes","768","legacy","72","72","G:\class task\subject-6.csv","xpyriment","8","9","Neonatal Nightingale","4.1.6","0","p","NA","space","p","680.0","NA","1098","680","5268","space","2","legacy","1024","2","48000","-16","experiment","6","even","130407","129703","7681","NA","1307","129905","6583","130407","131088","129698","1312","STROOP_task","72","51849.0","73","1024"
"98","98","712","712","#3d3846","xpyriment","legacy","legacy","i","1","undefined","1","p","undefined","73","73","0","0","0","73","0","73","73","73","0","Mon Dec 15 23:15:49 2025","The main experiment item","False","stroop_task.osexp","C:\Users\jobay\Downloads","False","mono","False","25","80","40","no","white","no","yes","768","legacy","73","73","G:\class task\subject-6.csv","xpyriment","3","8","Neonatal Nightingale","4.1.6","0","p","NA","space","p","843.0","NA","1098","843","5268","space","2","legacy","1024","2","48000","-16","experiment","6","even","131996","131292","7681","NA","1307","131494","6583","131996","132840","131288","1312","STROOP_task","73","52692.0","74","1024"
"98","98","728","728","#3d3846","xpyriment","legacy","legacy","n","1","undefined","1","q","undefined","74","74","0","0","0","74","0","74","74","74","0","Mon Dec 15 23:15:49 2025","The main experiment item","False","stroop_task.osexp","C:\Users\jobay\Downloads","False","mono","False","25","60","60","no","white","no","yes","768","legacy","74","74","G:\class task\subject-6.csv","xpyriment","7","6","Neonatal Nightingale","4.1.6","0","q","NA","space","q","1921.0","NA","1098","1921","5268","space","2","legacy","1024","2","48000","-16","experiment","6","even","133810","133106","7681","NA","1307","133308","6583","133810","135732","133102","1312","STROOP_task","74","54613.0","75","1024"
"97","97","728","728","#3d3846","xpyriment","legacy","legacy","i","0","undefined","0","q","undefined","75","75","0","0","0","75","0","75","75","75","0","Mon Dec 15 23:15:49 2025","The main experiment item","False","stroop_task.osexp","C:\Users\jobay\Downloads","False","mono","False","25","40","80","no","white","no","yes","768","legacy","75","75","G:\class task\subject-6.csv","xpyriment","4","3","Neonatal Nightingale","4.1.6","0","p","NA","space","p","787.0","NA","1098","787","5268","space","2","legacy","1024","2","48000","-16","experiment","6","even","136708","136004","7681","NA","1307","136206","6583","136708","137496","135999","1312","STROOP_task","74","55400.0","76","1024"
"97","97","730","730","#3d3846","xpyriment","legacy","legacy","i","1","undefined","1","p","undefined","76","76","0","0","0","76","0","76","76","76","0","Mon Dec 15 23:15:49 2025","The main experiment item","False","stroop_task.osexp","C:\Users\jobay\Downloads","False","mono","False","25","80","40","no","white","no","yes","768","legacy","76","76","G:\class task\subject-6.csv","xpyriment","1","2","Neonatal Nightingale","4.1.6","0","p","NA","space","p","818.0","NA","1098","818","5268","space","2","legacy","1024","2","48000","-16","experiment","6","even","138465","137759","7681","NA","1307","137961","6583","138465","139284","137753","1312","STROOP_task","75","56218.0","77","1024"
"97","97","729","729","#3d3846","xpyriment","legacy","legacy","i","1","undefined","1","p","undefined","77","77","0","0","0","77","0","77","77","77","0","Mon Dec 15 23:15:49 2025","The main experiment item","False","stroop_task.osexp","C:\Users\jobay\Downloads","False","mono","False","25","80","40","no","white","no","yes","768","legacy","77","77","G:\class task\subject-6.csv","xpyriment","4","9","Neonatal Nightingale","4.1.6","0","p","NA","space","p","666.0","NA","1098","666","5268","space","2","legacy","1024","2","48000","-16","experiment","6","even","140262","139558","7681","NA","1307","139760","6583","140262","140929","139554","1312","STROOP_task","76","56884.0","78","1024"
"97","97","738","738","#3d3846","xpyriment","legacy","legacy","n","1","undefined","1","q","undefined","78","78","0","0","0","78","0","78","78","78","0","Mon Dec 15 23:15:49 2025","The main experiment item","False","stroop_task.osexp","C:\Users\jobay\Downloads","False","mono","False","25","60","60","no","white","no","yes","768","legacy","78","78","G:\class task\subject-6.csv","xpyriment","4","3","Neonatal Nightingale","4.1.6","0","q","NA","space","q","1434.0","NA","1098","1434","5268","space","2","legacy","1024","2","48000","-16","experiment","6","even","141889","141185","7681","NA","1307","141387","6583","141889","143324","141180","1312","STROOP_task","77","58318.0","79","1024"
"97","97","739","739","#3d3846","xpyriment","legacy","legacy","i","1","undefined","1","q","undefined","79","79","0","0","0","79","0","79","79","79","0","Mon Dec 15 23:15:49 2025","The main experiment item","False","stroop_task.osexp","C:\Users\jobay\Downloads","False","mono","False","25","40","80","no","white","no","yes","768","legacy","79","79","G:\class task\subject-6.csv","xpyriment","9","4","Neonatal Nightingale","4.1.6","0","q","NA","space","q","843.0","NA","1098","843","5268","space","2","legacy","1024","2","48000","-16","experiment","6","even","144300","143596","7681","NA","1307","143798","6583","144300","145144","143591","1312","STROOP_task","78","59161.0","80","1024"
"97","97","744","744","#3d3846","xpyriment","legacy","legacy","n","1","undefined","1","p","undefined","80","80","0","0","0","80","0","80","80","80","0","Mon Dec 15 23:15:49 2025","The main experiment item","False","stroop_task.osexp","C:\Users\jobay\Downloads","False","mono","False","25","60","60","no","white","no","yes","768","legacy","80","80","G:\class task\subject-6.csv","xpyriment","3","4","Neonatal Nightingale","4.1.6","0","p","NA","space","p","1155.0","NA","1098","1155","5268","space","2","legacy","1024","2","48000","-16","experiment","6","even","146130","145426","7681","NA","1307","145628","6583","146130","147285","145422","1312","STROOP_task","79","60316.0","81","1024"
"97","97","741","741","#3d3846","xpyriment","legacy","legacy","n","1","undefined","1","q","undefined","81","81","0","0","0","81","0","81","81","81","0","Mon Dec 15 23:15:49 2025","The main experiment item","False","stroop_task.osexp","C:\Users\jobay\Downloads","False","mono","False","25","60","60","no","white","no","yes","768","legacy","81","81","G:\class task\subject-6.csv","xpyriment","7","2","Neonatal Nightingale","4.1.6","0","q","NA","space","q","504.0","NA","1098","504","5268","space","2","legacy","1024","2","48000","-16","experiment","6","even","148271","147567","7681","NA","1307","147769","6583","148271","148775","147562","1312","STROOP_task","80","60820.0","82","1024"
"97","97","739","739","#3d3846","xpyriment","legacy","legacy","c","1","undefined","1","q","undefined","82","82","0","0","0","82","0","82","82","82","0","Mon Dec 15 23:15:49 2025","The main experiment item","False","stroop_task.osexp","C:\Users\jobay\Downloads","False","mono","False","25","80","40","no","white","no","yes","768","legacy","82","82","G:\class task\subject-6.csv","xpyriment","7","2","Neonatal Nightingale","4.1.6","0","q","NA","space","q","580.0","NA","1098","580","5268","space","2","legacy","1024","2","48000","-16","experiment","6","even","149775","149071","7681","NA","1307","149273","6583","149775","150356","149067","1312","STROOP_task","81","61400.0","83","1024"
"97","97","740","740","#3d3846","xpyriment","legacy","legacy","c","1","undefined","1","p","undefined","83","83","0","0","0","83","0","83","83","83","0","Mon Dec 15 23:15:49 2025","The main experiment item","False","stroop_task.osexp","C:\Users\jobay\Downloads","False","mono","False","25","40","80","no","white","no","yes","768","legacy","83","83","G:\class task\subject-6.csv","xpyriment","8","9","Neonatal Nightingale","4.1.6","0","p","NA","space","p","762.0","NA","1098","762","5268","space","2","legacy","1024","2","48000","-16","experiment","6","even","151343","150639","7681","NA","1307","150841","6583","151343","152106","150635","1312","STROOP_task","82","62162.0","84","1024"
"97","97","741","741","#3d3846","xpyriment","legacy","legacy","n","1","undefined","1","q","undefined","84","84","0","0","0","84","0","84","84","84","0","Mon Dec 15 23:15:49 2025","The main experiment item","False","stroop_task.osexp","C:\Users\jobay\Downloads","False","mono","False","25","60","60","no","white","no","yes","768","legacy","84","84","G:\class task\subject-6.csv","xpyriment","8","3","Neonatal Nightingale","4.1.6","0","q","NA","space","q","830.0","NA","1098","830","5268","space","2","legacy","1024","2","48000","-16","experiment","6","even","153096","152392","7681","NA","1307","152594","6583","153096","153927","152388","1312","STROOP_task","83","62992.0","85","1024"
"97","97","737","737","#3d3846","xpyriment","legacy","legacy","c","1","undefined","1","p","undefined","85","85","0","0","0","85","0","85","85","85","0","Mon Dec 15 23:15:49 2025","The main experiment item","False","stroop_task.osexp","C:\Users\jobay\Downloads","False","mono","False","25","40","80","no","white","no","yes","768","legacy","85","85","G:\class task\subject-6.csv","xpyriment","2","7","Neonatal Nightingale","4.1.6","0","p","NA","space","p","470.0","NA","1098","470","5268","space","2","legacy","1024","2","48000","-16","experiment","6","even","154907","154203","7681","NA","1307","154405","6583","154907","155377","154199","1312","STROOP_task","84","63462.0","86","1024"
"97","97","736","736","#3d3846","xpyriment","legacy","legacy","c","1","undefined","1","q","undefined","86","86","0","0","0","86","0","86","86","86","0","Mon Dec 15 23:15:49 2025","The main experiment item","False","stroop_task.osexp","C:\Users\jobay\Downloads","False","mono","False","25","80","40","no","white","no","yes","768","legacy","86","86","G:\class task\subject-6.csv","xpyriment","2","1","Neonatal Nightingale","4.1.6","0","q","NA","space","q","632.0","NA","1098","632","5268","space","2","legacy","1024","2","48000","-16","experiment","6","even","156364","155660","7681","NA","1307","155862","6583","156364","156997","155656","1312","STROOP_task","85","64094.0","87","1024"
"97","97","734","734","#3d3846","xpyriment","legacy","legacy","c","1","undefined","1","q","undefined","87","87","0","0","0","87","0","87","87","87","0","Mon Dec 15 23:15:49 2025","The main experiment item","False","stroop_task.osexp","C:\Users\jobay\Downloads","False","mono","False","25","80","40","no","white","no","yes","768","legacy","87","87","G:\class task\subject-6.csv","xpyriment","6","1","Neonatal Nightingale","4.1.6","0","q","NA","space","q","530.0","NA","1098","530","5268","space","2","legacy","1024","2","48000","-16","experiment","6","even","158021","157316","7681","NA","1307","157519","6583","158021","158552","157312","1312","STROOP_task","86","64624.0","88","1024"
"97","97","735","735","#3d3846","xpyriment","legacy","legacy","i","1","undefined","1","q","undefined","88","88","0","0","0","88","0","88","88","88","0","Mon Dec 15 23:15:49 2025","The main experiment item","False","stroop_task.osexp","C:\Users\jobay\Downloads","False","mono","False","25","40","80","no","white","no","yes","768","legacy","88","88","G:\class task\subject-6.csv","xpyriment","7","2","Neonatal Nightingale","4.1.6","0","q","NA","space","q","801.0","NA","1098","801","5268","space","2","legacy","1024","2","48000","-16","experiment","6","even","159517","158813","7681","NA","1307","159015","6583","159517","160319","158809","1312","STROOP_task","87","65425.0","89","1024"
"97","97","733","733","#3d3846","xpyriment","legacy","legacy","i","1","undefined","1","q","undefined","89","89","0","0","0","89","0","89","89","89","0","Mon Dec 15 23:15:49 2025","The main experiment item","False","stroop_task.osexp","C:\Users\jobay\Downloads","False","mono","False","25","40","80","no","white","no","yes","768","legacy","89","89","G:\class task\subject-6.csv","xpyriment","9","4","Neonatal Nightingale","4.1.6","0","q","NA","space","q","554.0","NA","1098","554","5268","space","2","legacy","1024","2","48000","-16","experiment","6","even","161278","160574","7681","NA","1307","160776","6583","161278","161833","160569","1312","STROOP_task","88","65979.0","90","1024"
"97","97","733","733","#3d3846","xpyriment","legacy","legacy","n","1","undefined","1","p","undefined","90","90","0","0","0","90","0","90","90","90","0","Mon Dec 15 23:15:49 2025","The main experiment item","False","stroop_task.osexp","C:\Users\jobay\Downloads","False","mono","False","25","60","60","no","white","no","yes","768","legacy","90","90","G:\class task\subject-6.csv","xpyriment","3","8","Neonatal Nightingale","4.1.6","0","p","NA","space","p","774.0","NA","1098","774","5268","space","2","legacy","1024","2","48000","-16","experiment","6","even","162802","162098","7681","NA","1307","162300","6583","162802","163577","162094","1312","STROOP_task","89","66753.0","91","1024"
"97","97","741","741","#3d3846","xpyriment","legacy","legacy","i","1","undefined","1","p","undefined","91","91","0","0","0","91","0","91","91","91","0","Mon Dec 15 23:15:49 2025","The main experiment item","False","stroop_task.osexp","C:\Users\jobay\Downloads","False","mono","False","25","80","40","no","white","no","yes","768","legacy","91","91","G:\class task\subject-6.csv","xpyriment","3","8","Neonatal Nightingale","4.1.6","0","p","NA","space","p","1509.0","NA","1098","1509","5268","space","2","legacy","1024","2","48000","-16","experiment","6","even","164543","163839","7681","NA","1307","164041","6583","164543","166053","163834","1312","STROOP_task","90","68262.0","92","1024"
"97","97","742","742","#3d3846","xpyriment","legacy","legacy","c","1","undefined","1","q","undefined","92","92","0","0","0","92","0","92","92","92","0","Mon Dec 15 23:15:49 2025","The main experiment item","False","stroop_task.osexp","C:\Users\jobay\Downloads","False","mono","False","25","80","40","no","white","no","yes","768","legacy","92","92","G:\class task\subject-6.csv","xpyriment","9","8","Neonatal Nightingale","4.1.6","0","q","NA","space","q","808.0","NA","1098","808","5268","space","2","legacy","1024","2","48000","-16","experiment","6","even","167039","166335","7681","NA","1307","166537","6583","167039","167848","166330","1312","STROOP_task","91","69070.0","93","1024"
"97","97","740","740","#3d3846","xpyriment","legacy","legacy","n","1","undefined","1","q","undefined","93","93","0","0","0","93","0","93","93","93","0","Mon Dec 15 23:15:49 2025","The main experiment item","False","stroop_task.osexp","C:\Users\jobay\Downloads","False","mono","False","25","60","60","no","white","no","yes","768","legacy","93","93","G:\class task\subject-6.csv","xpyriment","7","2","Neonatal Nightingale","4.1.6","0","q","NA","space","q","583.0","NA","1098","583","5268","space","2","legacy","1024","2","48000","-16","experiment","6","even","168824","168118","7681","NA","1307","168320","6583","168824","169408","168113","1312","STROOP_task","92","69653.0","94","1024"
"97","97","739","739","#3d3846","xpyriment","legacy","legacy","n","1","undefined","1","q","undefined","94","94","0","0","0","94","0","94","94","94","0","Mon Dec 15 23:15:49 2025","The main experiment item","False","stroop_task.osexp","C:\Users\jobay\Downloads","False","mono","False","25","60","60","no","white","no","yes","768","legacy","94","94","G:\class task\subject-6.csv","xpyriment","6","1","Neonatal Nightingale","4.1.6","0","q","NA","space","q","577.0","NA","1098","577","5268","space","2","legacy","1024","2","48000","-16","experiment","6","even","170355","169651","7681","NA","1307","169853","6583","170355","170932","169646","1312","STROOP_task","93","70230.0","95","1024"
"96","96","736","736","#3d3846","xpyriment","legacy","legacy","i","0","undefined","0","p","undefined","95","95","0","0","0","95","0","95","95","95","0","Mon Dec 15 23:15:49 2025","The main experiment item","False","stroop_task.osexp","C:\Users\jobay\Downloads","False","mono","False","25","80","40","no","white","no","yes","768","legacy","95","95","G:\class task\subject-6.csv","xpyriment","6","7","Neonatal Nightingale","4.1.6","0","q","NA","space","q","466.0","NA","1098","466","5268","space","2","legacy","1024","2","48000","-16","experiment","6","even","171907","171203","7681","NA","1307","171405","6583","171907","172374","171199","1312","STROOP_task","93","70696.0","96","1024"
"96","96","739","739","#3d3846","xpyriment","legacy","legacy","n","1","undefined","1","q","undefined","96","96","0","0","0","96","0","96","96","96","0","Mon Dec 15 23:15:49 2025","The main experiment item","False","stroop_task.osexp","C:\Users\jobay\Downloads","False","mono","False","25","60","60","no","white","no","yes","768","legacy","96","96","G:\class task\subject-6.csv","xpyriment","7","6","Neonatal Nightingale","4.1.6","0","q","NA","space","q","1037.0","NA","1098","1037","5268","space","2","legacy","1024","2","48000","-16","experiment","6","even","173355","172651","7681","NA","1307","172853","6583","173355","174392","172647","1312","STROOP_task","94","71733.0","97","1024"
"96","96","738","738","#3d3846","xpyriment","legacy","legacy","i","1","undefined","1","p","undefined","97","97","0","0","0","97","0","97","97","97","0","Mon Dec 15 23:15:49 2025","The main experiment item","False","stroop_task.osexp","C:\Users\jobay\Downloads","False","mono","False","25","80","40","no","white","no","yes","768","legacy","97","97","G:\class task\subject-6.csv","xpyriment","1","6","Neonatal Nightingale","4.1.6","0","p","NA","space","p","656.0","NA","1098","656","5268","space","2","legacy","1024","2","48000","-16","experiment","6","even","175340","174636","7681","NA","1307","174838","6583","175340","175997","174631","1312","STROOP_task","95","72389.0","98","1024"
"96","96","737","737","#3d3846","xpyriment","legacy","legacy","n","1","undefined","1","p","undefined","98","98","0","0","0","98","0","98","98","98","0","Mon Dec 15 23:15:49 2025","The main experiment item","False","stroop_task.osexp","C:\Users\jobay\Downloads","False","mono","False","25","60","60","no","white","no","yes","768","legacy","98","98","G:\class task\subject-6.csv","xpyriment","2","7","Neonatal Nightingale","4.1.6","0","p","NA","space","p","581.0","NA","1098","581","5268","space","2","legacy","1024","2","48000","-16","experiment","6","even","176976","176272","7681","NA","1307","176474","6583","176976","177557","176267","1312","STROOP_task","96","72970.0","99","1024"
"97","97","736","736","#3d3846","xpyriment","legacy","legacy","i","1","undefined","1","p","undefined","99","99","0","0","0","99","0","99","99","99","0","Mon Dec 15 23:15:49 2025","The main experiment item","False","stroop_task.osexp","C:\Users\jobay\Downloads","False","mono","False","25","80","40","no","white","no","yes","768","legacy","99","99","G:\class task\subject-6.csv","xpyriment","2","7","Neonatal Nightingale","4.1.6","0","p","NA","space","p","729.0","NA","1098","729","5268","space","2","legacy","1024","2","48000","-16","experiment","6","even","178551","177847","7681","NA","1307","178049","6583","178551","179281","177843","1312","STROOP_task","97","73699.0","100","1024"
"97","97","736","736","#3d3846","xpyriment","legacy","legacy","n","1","undefined","1","p","undefined","100","100","0","0","0","100","0","100","100","100","0","Mon Dec 15 23:15:49 2025","The main experiment item","False","stroop_task.osexp","C:\Users\jobay\Downloads","False","mono","False","25","60","60","no","white","no","yes","768","legacy","100","100","G:\class task\subject-6.csv","xpyriment","1","2","Neonatal Nightingale","4.1.6","0","p","NA","space","p","714.0","NA","1098","714","5268","space","2","legacy","1024","2","48000","-16","experiment","6","even","180283","179579","7681","NA","1307","179781","6583","180283","180998","179574","1312","STROOP_task","98","74413.0","101","1024"
"97","97","736","736","#3d3846","xpyriment","legacy","legacy","c","1","undefined","1","q","undefined","101","101","0","0","0","101","0","101","101","101","0","Mon Dec 15 23:15:49 2025","The main experiment item","False","stroop_task.osexp","C:\Users\jobay\Downloads","False","mono","False","25","80","40","no","white","no","yes","768","legacy","101","101","G:\class task\subject-6.csv","xpyriment","7","6","Neonatal Nightingale","4.1.6","0","q","NA","space","q","736.0","NA","1098","736","5268","space","2","legacy","1024","2","48000","-16","experiment","6","even","181994","181290","7681","NA","1307","181492","6583","181994","182731","181285","1312","STROOP_task","99","75149.0","102","1024"
"97","97","739","739","#3d3846","xpyriment","legacy","legacy","i","1","undefined","1","p","undefined","102","102","0","0","0","102","0","102","102","102","0","Mon Dec 15 23:15:49 2025","The main experiment item","False","stroop_task.osexp","C:\Users\jobay\Downloads","False","mono","False","25","80","40","no","white","no","yes","768","legacy","102","102","G:\class task\subject-6.csv","xpyriment","8","9","Neonatal Nightingale","4.1.6","0","p","NA","space","p","1008.0","NA","1098","1008","5268","space","2","legacy","1024","2","48000","-16","experiment","6","even","183711","183007","7681","NA","1307","183209","6583","183711","184720","183003","1312","STROOP_task","100","76157.0","103","1024"
"97","97","742","742","#3d3846","xpyriment","legacy","legacy","i","1","undefined","1","q","undefined","103","103","0","0","0","103","0","103","103","103","0","Mon Dec 15 23:15:49 2025","The main experiment item","False","stroop_task.osexp","C:\Users\jobay\Downloads","False","mono","False","25","40","80","no","white","no","yes","768","legacy","103","103","G:\class task\subject-6.csv","xpyriment","9","8","Neonatal Nightingale","4.1.6","0","q","NA","space","q","1022.0","NA","1098","1022","5268","space","2","legacy","1024","2","48000","-16","experiment","6","even","185706","185001","7681","NA","1307","185204","6583","185706","186729","184997","1312","STROOP_task","101","77179.0","104","1024"
"97","97","741","741","#3d3846","xpyriment","legacy","legacy","c","1","undefined","1","q","undefined","104","104","0","0","0","104","0","104","104","104","0","Mon Dec 15 23:15:49 2025","The main experiment item","False","stroop_task.osexp","C:\Users\jobay\Downloads","False","mono","False","25","80","40","no","white","no","yes","768","legacy","104","104","G:\class task\subject-6.csv","xpyriment","9","8","Neonatal Nightingale","4.1.6","0","q","NA","space","q","718.0","NA","1098","718","5268","space","2","legacy","1024","2","48000","-16","experiment","6","even","187738","187034","7681","NA","1307","187236","6583","187738","188457","187029","1312","STROOP_task","102","77897.0","105","1024"
"97","97","741","741","#3d3846","xpyriment","legacy","legacy","c","1","undefined","1","q","undefined","105","105","0","0","0","105","0","105","105","105","0","Mon Dec 15 23:15:49 2025","The main experiment item","False","stroop_task.osexp","C:\Users\jobay\Downloads","False","mono","False","25","80","40","no","white","no","yes","768","legacy","105","105","G:\class task\subject-6.csv","xpyriment","2","1","Neonatal Nightingale","4.1.6","0","q","NA","space","q","711.0","NA","1098","711","5268","space","2","legacy","1024","2","48000","-16","experiment","6","even","189421","188717","7681","NA","1307","188919","6583","189421","190133","188713","1312","STROOP_task","103","78608.0","106","1024"
"97","97","741","741","#3d3846","xpyriment","legacy","legacy","i","1","undefined","1","q","undefined","106","106","0","0","0","106","0","106","106","106","0","Mon Dec 15 23:15:49 2025","The main experiment item","False","stroop_task.osexp","C:\Users\jobay\Downloads","False","mono","False","25","40","80","no","white","no","yes","768","legacy","106","106","G:\class task\subject-6.csv","xpyriment","7","2","Neonatal Nightingale","4.1.6","0","q","NA","space","q","762.0","NA","1098","762","5268","space","2","legacy","1024","2","48000","-16","experiment","6","even","191100","190395","7681","NA","1307","190598","6583","191100","191863","190391","1312","STROOP_task","104","79370.0","107","1024"
"97","97","745","745","#3d3846","xpyriment","legacy","legacy","i","1","undefined","1","q","undefined","107","107","0","0","0","107","0","107","107","107","0","Mon Dec 15 23:15:49 2025","The main experiment item","False","stroop_task.osexp","C:\Users\jobay\Downloads","False","mono","False","25","40","80","no","white","no","yes","768","legacy","107","107","G:\class task\subject-6.csv","xpyriment","4","3","Neonatal Nightingale","4.1.6","0","q","NA","space","q","1151.0","NA","1098","1151","5268","space","2","legacy","1024","2","48000","-16","experiment","6","even","192822","192118","7681","NA","1307","192320","6583","192822","193974","192114","1312","STROOP_task","105","80521.0","108","1024"
"97","97","745","745","#3d3846","xpyriment","legacy","legacy","n","1","undefined","1","p","undefined","108","108","0","0","0","108","0","108","108","108","0","Mon Dec 15 23:15:49 2025","The main experiment item","False","stroop_task.osexp","C:\Users\jobay\Downloads","False","mono","False","25","60","60","no","white","no","yes","768","legacy","108","108","G:\class task\subject-6.csv","xpyriment","6","7","Neonatal Nightingale","4.1.6","0","p","NA","space","p","695.0","NA","1098","695","5268","space","2","legacy","1024","2","48000","-16","experiment","6","even","194938","194234","7681","NA","1307","194436","6583","194938","195634","194230","1312","STROOP_task","106","81216.0","109","1024"
"97","97","744","744","#3d3846","xpyriment","legacy","legacy","n","1","undefined","1","q","undefined","109","109","0","0","0","109","0","109","109","109","0","Mon Dec 15 23:15:49 2025","The main experiment item","False","stroop_task.osexp","C:\Users\jobay\Downloads","False","mono","False","25","60","60","no","white","no","yes","768","legacy","109","109","G:\class task\subject-6.csv","xpyriment","7","2","Neonatal Nightingale","4.1.6","0","q","NA","space","q","698.0","NA","1098","698","5268","space","2","legacy","1024","2","48000","-16","experiment","6","even","196549","195844","7681","NA","1307","196047","6583","196549","197248","195840","1312","STROOP_task","107","81914.0","110","1024"
"97","97","743","743","#3d3846","xpyriment","legacy","legacy","n","1","undefined","1","q","undefined","110","110","0","0","0","110","0","110","110","110","0","Mon Dec 15 23:15:49 2025","The main experiment item","False","stroop_task.osexp","C:\Users\jobay\Downloads","False","mono","False","25","60","60","no","white","no","yes","768","legacy","110","110","G:\class task\subject-6.csv","xpyriment","9","8","Neonatal Nightingale","4.1.6","0","q","NA","space","q","571.0","NA","1098","571","5268","space","2","legacy","1024","2","48000","-16","experiment","6","even","198203","197498","7681","NA","1307","197701","6583","198203","198775","197492","1312","STROOP_task","108","82485.0","111","1024"
"97","97","746","746","#3d3846","xpyriment","legacy","legacy","n","1","undefined","1","p","undefined","111","111","0","0","0","111","0","111","111","111","0","Mon Dec 15 23:15:49 2025","The main experiment item","False","stroop_task.osexp","C:\Users\jobay\Downloads","False","mono","False","25","60","60","no","white","no","yes","768","legacy","111","111","G:\class task\subject-6.csv","xpyriment","6","7","Neonatal Nightingale","4.1.6","0","p","NA","space","p","1088.0","NA","1098","1088","5268","space","2","legacy","1024","2","48000","-16","experiment","6","even","199740","199036","7681","NA","1307","199238","6583","199740","200829","199032","1312","STROOP_task","109","83573.0","112","1024"
"97","97","747","747","#3d3846","xpyriment","legacy","legacy","i","1","undefined","1","p","undefined","112","112","0","0","0","112","0","112","112","112","0","Mon Dec 15 23:15:49 2025","The main experiment item","False","stroop_task.osexp","C:\Users\jobay\Downloads","False","mono","False","25","80","40","no","white","no","yes","768","legacy","112","112","G:\class task\subject-6.csv","xpyriment","2","7","Neonatal Nightingale","4.1.6","0","p","NA","space","p","921.0","NA","1098","921","5268","space","2","legacy","1024","2","48000","-16","experiment","6","even","201792","201087","7681","NA","1307","201290","6583","201792","202714","201083","1312","STROOP_task","110","84494.0","113","1024"
"97","97","748","748","#3d3846","xpyriment","legacy","legacy","i","1","undefined","1","p","undefined","113","113","0","0","0","113","0","113","113","113","0","Mon Dec 15 23:15:49 2025","The main experiment item","False","stroop_task.osexp","C:\Users\jobay\Downloads","False","mono","False","25","80","40","no","white","no","yes","768","legacy","113","113","G:\class task\subject-6.csv","xpyriment","8","9","Neonatal Nightingale","4.1.6","0","p","NA","space","p","869.0","NA","1098","869","5268","space","2","legacy","1024","2","48000","-16","experiment","6","even","203693","202989","7681","NA","1307","203191","6583","203693","204562","202985","1312","STROOP_task","111","85363.0","114","1024"
"97","97","747","747","#3d3846","xpyriment","legacy","legacy","n","1","undefined","1","p","undefined","114","114","0","0","0","114","0","114","114","114","0","Mon Dec 15 23:15:49 2025","The main experiment item","False","stroop_task.osexp","C:\Users\jobay\Downloads","False","mono","False","25","60","60","no","white","no","yes","768","legacy","114","114","G:\class task\subject-6.csv","xpyriment","1","2","Neonatal Nightingale","4.1.6","0","p","NA","space","p","624.0","NA","1098","624","5268","space","2","legacy","1024","2","48000","-16","experiment","6","even","205524","204820","7681","NA","1307","205022","6583","205524","206149","204816","1312","STROOP_task","112","85987.0","115","1024"
"97","97","745","745","#3d3846","xpyriment","legacy","legacy","c","1","undefined","1","p","undefined","115","115","0","0","0","115","0","115","115","115","0","Mon Dec 15 23:15:49 2025","The main experiment item","False","stroop_task.osexp","C:\Users\jobay\Downloads","False","mono","False","25","40","80","no","white","no","yes","768","legacy","115","115","G:\class task\subject-6.csv","xpyriment","6","7","Neonatal Nightingale","4.1.6","0","p","NA","space","p","473.0","NA","1098","473","5268","space","2","legacy","1024","2","48000","-16","experiment","6","even","207139","206435","7681","NA","1307","206637","6583","207139","207613","206431","1312","STROOP_task","113","86460.0","116","1024"
"97","97","746","746","#3d3846","xpyriment","legacy","legacy","c","1","undefined","1","p","undefined","116","116","0","0","0","116","0","116","116","116","0","Mon Dec 15 23:15:49 2025","The main experiment item","False","stroop_task.osexp","C:\Users\jobay\Downloads","False","mono","False","25","40","80","no","white","no","yes","768","legacy","116","116","G:\class task\subject-6.csv","xpyriment","3","4","Neonatal Nightingale","4.1.6","0","p","NA","space","p","841.0","NA","1098","841","5268","space","2","legacy","1024","2","48000","-16","experiment","6","even","208600","207896","7681","NA","1307","208098","6583","208600","209442","207891","1312","STROOP_task","114","87301.0","117","1024"
"97","97","744","744","#3d3846","xpyriment","legacy","legacy","c","1","undefined","1","q","undefined","117","117","0","0","0","117","0","117","117","117","0","Mon Dec 15 23:15:49 2025","The main experiment item","False","stroop_task.osexp","C:\Users\jobay\Downloads","False","mono","False","25","80","40","no","white","no","yes","768","legacy","117","117","G:\class task\subject-6.csv","xpyriment","9","4","Neonatal Nightingale","4.1.6","0","q","NA","space","q","581.0","NA","1098","581","5268","space","2","legacy","1024","2","48000","-16","experiment","6","even","210432","209728","7681","NA","1307","209930","6583","210432","211014","209724","1312","STROOP_task","115","87882.0","118","1024"
"97","97","746","746","#3d3846","xpyriment","legacy","legacy","i","1","undefined","1","q","undefined","118","118","0","0","0","118","0","118","118","118","0","Mon Dec 15 23:15:49 2025","The main experiment item","False","stroop_task.osexp","C:\Users\jobay\Downloads","False","mono","False","25","40","80","no","white","no","yes","768","legacy","118","118","G:\class task\subject-6.csv","xpyriment","4","3","Neonatal Nightingale","4.1.6","0","q","NA","space","q","937.0","NA","1098","937","5268","space","2","legacy","1024","2","48000","-16","experiment","6","even","211996","211292","7681","NA","1307","211494","6583","211996","212934","211288","1312","STROOP_task","116","88819.0","119","1024"
"97","97","745","745","#3d3846","xpyriment","legacy","legacy","i","1","undefined","1","q","undefined","119","119","0","0","0","119","0","119","119","119","0","Mon Dec 15 23:15:49 2025","The main experiment item","False","stroop_task.osexp","C:\Users\jobay\Downloads","False","mono","False","25","40","80","no","white","no","yes","768","legacy","119","119","G:\class task\subject-6.csv","xpyriment","7","6","Neonatal Nightingale","4.1.6","0","q","NA","space","q","642.0","NA","1098","642","5268","space","2","legacy","1024","2","48000","-16","experiment","6","even","213955","213251","7681","NA","1307","213453","6583","213955","214598","213247","1312","STROOP_task","117","89461.0","120","1024"
"97","97","744","744","#3d3846","xpyriment","legacy","legacy","n","1","undefined","1","q","undefined","120","120","0","0","0","120","0","120","120","120","0","Mon Dec 15 23:15:49 2025","The main experiment item","False","stroop_task.osexp","C:\Users\jobay\Downloads","False","mono","False","25","60","60","no","white","no","yes","768","legacy","120","120","G:\class task\subject-6.csv","xpyriment","8","3","Neonatal Nightingale","4.1.6","0","q","NA","space","q","593.0","NA","1098","593","5268","space","2","legacy","1024","2","48000","-16","experiment","6","even","215583","214879","7681","NA","1307","215081","6583","215583","216177","214874","1312","STROOP_task","118","90054.0","121","1024"
"97","97","742","742","#3d3846","xpyriment","legacy","legacy","n","1","undefined","1","p","undefined","121","121","0","0","0","121","0","121","121","121","0","Mon Dec 15 23:15:49 2025","The main experiment item","False","stroop_task.osexp","C:\Users\jobay\Downloads","False","mono","False","25","60","60","no","white","no","yes","768","legacy","121","121","G:\class task\subject-6.csv","xpyriment","6","7","Neonatal Nightingale","4.1.6","0","p","NA","space","p","540.0","NA","1098","540","5268","space","2","legacy","1024","2","48000","-16","experiment","6","even","217196","216491","7681","NA","1307","216694","6583","217196","217737","216487","1312","STROOP_task","119","90594.0","122","1024"
"97","97","741","741","#3d3846","xpyriment","legacy","legacy","c","1","undefined","1","q","undefined","122","122","0","0","0","122","0","122","122","122","0","Mon Dec 15 23:15:49 2025","The main experiment item","False","stroop_task.osexp","C:\Users\jobay\Downloads","False","mono","False","25","80","40","no","white","no","yes","768","legacy","122","122","G:\class task\subject-6.csv","xpyriment","9","8","Neonatal Nightingale","4.1.6","0","q","NA","space","q","630.0","NA","1098","630","5268","space","2","legacy","1024","2","48000","-16","experiment","6","even","218699","217995","7681","NA","1307","218197","6583","218699","219329","217991","1312","STROOP_task","120","91224.0","123","1024"
"97","97","739","739","#3d3846","xpyriment","legacy","legacy","c","1","undefined","1","q","undefined","123","123","0","0","0","123","0","123","123","123","0","Mon Dec 15 23:15:49 2025","The main experiment item","False","stroop_task.osexp","C:\Users\jobay\Downloads","False","mono","False","25","80","40","no","white","no","yes","768","legacy","123","123","G:\class task\subject-6.csv","xpyriment","9","8","Neonatal Nightingale","4.1.6","0","q","NA","space","q","468.0","NA","1098","468","5268","space","2","legacy","1024","2","48000","-16","experiment","6","even","220297","219593","7681","NA","1307","219795","6583","220297","220766","219589","1312","STROOP_task","121","91692.0","124","1024"
"97","97","738","738","#3d3846","xpyriment","legacy","legacy","n","1","undefined","1","p","undefined","124","124","0","0","0","124","0","124","124","124","0","Mon Dec 15 23:15:49 2025","The main experiment item","False","stroop_task.osexp","C:\Users\jobay\Downloads","False","mono","False","25","60","60","no","white","no","yes","768","legacy","124","124","G:\class task\subject-6.csv","xpyriment","1","2","Neonatal Nightingale","4.1.6","0","p","NA","space","p","561.0","NA","1098","561","5268","space","2","legacy","1024","2","48000","-16","experiment","6","even","221724","221020","7681","NA","1307","221222","6583","221724","222286","221016","1312","STROOP_task","122","92253.0","125","1024"
"97","97","736","736","#3d3846","xpyriment","legacy","legacy","c","1","undefined","1","q","undefined","125","125","0","0","0","125","0","125","125","125","0","Mon Dec 15 23:15:49 2025","The main experiment item","False","stroop_task.osexp","C:\Users\jobay\Downloads","False","mono","False","25","80","40","no","white","no","yes","768","legacy","125","125","G:\class task\subject-6.csv","xpyriment","8","3","Neonatal Nightingale","4.1.6","0","q","NA","space","q","520.0","NA","1098","520","5268","space","2","legacy","1024","2","48000","-16","experiment","6","even","223202","222497","7681","NA","1307","222700","6583","223202","223723","222492","1312","STROOP_task","123","92773.0","126","1024"
"97","97","734","734","#3d3846","xpyriment","legacy","legacy","c","1","undefined","1","q","undefined","126","126","0","0","0","126","0","126","126","126","0","Mon Dec 15 23:15:49 2025","The main experiment item","False","stroop_task.osexp","C:\Users\jobay\Downloads","False","mono","False","25","80","40","no","white","no","yes","768","legacy","126","126","G:\class task\subject-6.csv","xpyriment","8","3","Neonatal Nightingale","4.1.6","0","q","NA","space","q","496.0","NA","1098","496","5268","space","2","legacy","1024","2","48000","-16","experiment","6","even","224690","223985","7681","NA","1307","224188","6583","224690","225187","223980","1312","STROOP_task","124","93269.0","127","1024"
"97","97","733","733","#3d3846","xpyriment","legacy","legacy","n","1","undefined","1","p","undefined","127","127","0","0","0","127","0","127","127","127","0","Mon Dec 15 23:15:49 2025","The main experiment item","False","stroop_task.osexp","C:\Users\jobay\Downloads","False","mono","False","25","60","60","no","white","no","yes","768","legacy","127","127","G:\class task\subject-6.csv","xpyriment","2","7","Neonatal Nightingale","4.1.6","0","p","NA","space","p","623.0","NA","1098","623","5268","space","2","legacy","1024","2","48000","-16","experiment","6","even","226170","225464","7681","NA","1307","225667","6583","226170","226794","225460","1312","STROOP_task","125","93892.0","128","1024"
"97","97","732","732","#3d3846","xpyriment","legacy","legacy","n","1","undefined","1","q","undefined","128","128","0","0","0","128","0","128","128","128","0","Mon Dec 15 23:15:49 2025","The main experiment item","False","stroop_task.osexp","C:\Users\jobay\Downloads","False","mono","False","25","60","60","no","white","no","yes","768","legacy","128","128","G:\class task\subject-6.csv","xpyriment","2","1","Neonatal Nightingale","4.1.6","0","q","NA","space","q","538.0","NA","1098","538","5268","space","2","legacy","1024","2","48000","-16","experiment","6","even","227746","227042","7681","NA","1307","227244","6583","227746","228285","227038","1312","STROOP_task","126","94430.0","129","1024"
"97","97","730","730","#3d3846","xpyriment","legacy","legacy","n","1","undefined","1","q","undefined","129","129","0","0","0","129","0","129","129","129","0","Mon Dec 15 23:15:49 2025","The main experiment item","False","stroop_task.osexp","C:\Users\jobay\Downloads","False","mono","False","25","60","60","no","white","no","yes","768","legacy","129","129","G:\class task\subject-6.csv","xpyriment","6","1","Neonatal Nightingale","4.1.6","0","q","NA","space","q","592.0","NA","1098","592","5268","space","2","legacy","1024","2","48000","-16","experiment","6","even","229267","228563","7681","NA","1307","228765","6583","229267","229860","228558","1312","STROOP_task","127","95022.0","130","1024"
"97","97","729","729","#3d3846","xpyriment","legacy","legacy","i","1","undefined","1","q","undefined","130","130","0","0","0","130","0","130","130","130","0","Mon Dec 15 23:15:49 2025","The main experiment item","False","stroop_task.osexp","C:\Users\jobay\Downloads","False","mono","False","25","40","80","no","white","no","yes","768","legacy","130","130","G:\class task\subject-6.csv","xpyriment","8","3","Neonatal Nightingale","4.1.6","0","q","NA","space","q","577.0","NA","1098","577","5268","space","2","legacy","1024","2","48000","-16","experiment","6","even","230828","230124","7681","NA","1307","230326","6583","230828","231406","230120","1312","STROOP_task","128","95599.0","131","1024"
"97","97","728","728","#3d3846","xpyriment","legacy","legacy","i","1","undefined","1","q","undefined","131","131","0","0","0","131","0","131","131","131","0","Mon Dec 15 23:15:49 2025","The main experiment item","False","stroop_task.osexp","C:\Users\jobay\Downloads","False","mono","False","25","40","80","no","white","no","yes","768","legacy","131","131","G:\class task\subject-6.csv","xpyriment","7","6","Neonatal Nightingale","4.1.6","0","q","NA","space","q","555.0","NA","1098","555","5268","space","2","legacy","1024","2","48000","-16","experiment","6","even","232368","231664","7681","NA","1307","231866","6583","232368","232924","231659","1312","STROOP_task","129","96154.0","132","1024"
"97","97","727","727","#3d3846","xpyriment","legacy","legacy","i","1","undefined","1","p","undefined","132","132","0","0","0","132","0","132","132","132","0","Mon Dec 15 23:15:49 2025","The main experiment item","False","stroop_task.osexp","C:\Users\jobay\Downloads","False","mono","False","25","80","40","no","white","no","yes","768","legacy","132","132","G:\class task\subject-6.csv","xpyriment","4","9","Neonatal Nightingale","4.1.6","0","p","NA","space","p","588.0","NA","1098","588","5268","space","2","legacy","1024","2","48000","-16","experiment","6","even","233857","233153","7681","NA","1307","233355","6583","233857","234446","233148","1312","STROOP_task","130","96742.0","133","1024"
"97","97","727","727","#3d3846","xpyriment","legacy","legacy","i","1","undefined","1","p","undefined","133","133","0","0","0","133","0","133","133","133","0","Mon Dec 15 23:15:49 2025","The main experiment item","False","stroop_task.osexp","C:\Users\jobay\Downloads","False","mono","False","25","80","40","no","white","no","yes","768","legacy","133","133","G:\class task\subject-6.csv","xpyriment","1","2","Neonatal Nightingale","4.1.6","0","p","NA","space","p","695.0","NA","1098","695","5268","space","2","legacy","1024","2","48000","-16","experiment","6","even","235426","234722","7681","NA","1307","234924","6583","235426","236122","234718","1312","STROOP_task","131","97437.0","134","1024"
"97","97","727","727","#3d3846","xpyriment","legacy","legacy","n","1","undefined","1","p","undefined","134","134","0","0","0","134","0","134","134","134","0","Mon Dec 15 23:15:49 2025","The main experiment item","False","stroop_task.osexp","C:\Users\jobay\Downloads","False","mono","False","25","60","60","no","white","no","yes","768","legacy","134","134","G:\class task\subject-6.csv","xpyriment","6","7","Neonatal Nightingale","4.1.6","0","p","NA","space","p","810.0","NA","1098","810","5268","space","2","legacy","1024","2","48000","-16","experiment","6","even","237111","236407","7681","NA","1307","236609","6583","237111","237922","236403","1312","STROOP_task","132","98247.0","135","1024"
"97","97","729","729","#3d3846","xpyriment","legacy","legacy","i","1","undefined","1","p","undefined","135","135","0","0","0","135","0","135","135","135","0","Mon Dec 15 23:15:49 2025","The main experiment item","False","stroop_task.osexp","C:\Users\jobay\Downloads","False","mono","False","25","80","40","no","white","no","yes","768","legacy","135","135","G:\class task\subject-6.csv","xpyriment","1","6","Neonatal Nightingale","4.1.6","0","p","NA","space","p","990.0","NA","1098","990","5268","space","2","legacy","1024","2","48000","-16","experiment","6","even","238861","238157","7681","NA","1307","238359","6583","238861","239852","238152","1312","STROOP_task","133","99237.0","136","1024"
"97","97","729","729","#3d3846","xpyriment","legacy","legacy","c","1","undefined","1","q","undefined","136","136","0","0","0","136","0","136","136","136","0","Mon Dec 15 23:15:49 2025","The main experiment item","False","stroop_task.osexp","C:\Users\jobay\Downloads","False","mono","False","25","80","40","no","white","no","yes","768","legacy","136","136","G:\class task\subject-6.csv","xpyriment","4","3","Neonatal Nightingale","4.1.6","0","q","NA","space","q","669.0","NA","1098","669","5268","space","2","legacy","1024","2","48000","-16","experiment","6","even","240831","240127","7681","NA","1307","240329","6583","240831","241501","240123","1312","STROOP_task","134","99906.0","137","1024"
"97","97","728","728","#3d3846","xpyriment","legacy","legacy","i","1","undefined","1","q","undefined","137","137","0","0","0","137","0","137","137","137","0","Mon Dec 15 23:15:49 2025","The main experiment item","False","stroop_task.osexp","C:\Users\jobay\Downloads","False","mono","False","25","40","80","no","white","no","yes","768","legacy","137","137","G:\class task\subject-6.csv","xpyriment","9","4","Neonatal Nightingale","4.1.6","0","q","NA","space","q","589.0","NA","1098","589","5268","space","2","legacy","1024","2","48000","-16","experiment","6","even","242489","241785","7681","NA","1307","241987","6583","242489","243079","241781","1312","STROOP_task","135","100495.0","138","1024"
"97","97","727","727","#3d3846","xpyriment","legacy","legacy","n","1","undefined","1","p","undefined","138","138","0","0","0","138","0","138","138","138","0","Mon Dec 15 23:15:49 2025","The main experiment item","False","stroop_task.osexp","C:\Users\jobay\Downloads","False","mono","False","25","60","60","no","white","no","yes","768","legacy","138","138","G:\class task\subject-6.csv","xpyriment","1","2","Neonatal Nightingale","4.1.6","0","p","NA","space","p","674.0","NA","1098","674","5268","space","2","legacy","1024","2","48000","-16","experiment","6","even","244159","243455","7681","NA","1307","243657","6583","244159","244834","243451","1312","STROOP_task","136","101169.0","139","1024"
"97","97","727","727","#3d3846","xpyriment","legacy","legacy","i","1","undefined","1","p","undefined","139","139","0","0","0","139","0","139","139","139","0","Mon Dec 15 23:15:49 2025","The main experiment item","False","stroop_task.osexp","C:\Users\jobay\Downloads","False","mono","False","25","80","40","no","white","no","yes","768","legacy","139","139","G:\class task\subject-6.csv","xpyriment","1","6","Neonatal Nightingale","4.1.6","0","p","NA","space","p","630.0","NA","1098","630","5268","space","2","legacy","1024","2","48000","-16","experiment","6","even","245802","245098","7681","NA","1307","245300","6583","245802","246432","245094","1312","STROOP_task","137","101799.0","140","1024"
"97","97","726","726","#3d3846","xpyriment","legacy","legacy","i","1","undefined","1","q","undefined","140","140","0","0","0","140","0","140","140","140","0","Mon Dec 15 23:15:49 2025","The main experiment item","False","stroop_task.osexp","C:\Users\jobay\Downloads","False","mono","False","25","40","80","no","white","no","yes","768","legacy","140","140","G:\class task\subject-6.csv","xpyriment","4","3","Neonatal Nightingale","4.1.6","0","q","NA","space","q","593.0","NA","1098","593","5268","space","2","legacy","1024","2","48000","-16","experiment","6","even","247401","246697","7681","NA","1307","246899","6583","247401","247996","246693","1312","STROOP_task","138","102392.0","141","1024"
"97","97","725","725","#3d3846","xpyriment","legacy","legacy","i","1","undefined","1","p","undefined","141","141","0","0","0","141","0","141","141","141","0","Mon Dec 15 23:15:49 2025","The main experiment item","False","stroop_task.osexp","C:\Users\jobay\Downloads","False","mono","False","25","80","40","no","white","no","yes","768","legacy","141","141","G:\class task\subject-6.csv","xpyriment","1","2","Neonatal Nightingale","4.1.6","0","p","NA","space","p","564.0","NA","1098","564","5268","space","2","legacy","1024","2","48000","-16","experiment","6","even","248913","248209","7681","NA","1307","248411","6583","248913","249478","248205","1312","STROOP_task","139","102956.0","142","1024"
"97","97","724","724","#3d3846","xpyriment","legacy","legacy","c","1","undefined","1","p","undefined","142","142","0","0","0","142","0","142","142","142","0","Mon Dec 15 23:15:49 2025","The main experiment item","False","stroop_task.osexp","C:\Users\jobay\Downloads","False","mono","False","25","40","80","no","white","no","yes","768","legacy","142","142","G:\class task\subject-6.csv","xpyriment","3","8","Neonatal Nightingale","4.1.6","0","p","NA","space","p","689.0","NA","1098","689","5268","space","2","legacy","1024","2","48000","-16","experiment","6","even","250438","249733","7681","NA","1307","249935","6583","250438","251128","249728","1312","STROOP_task","140","103645.0","143","1024"
